dsp clock from the systime interface: 569618195833
sequence_number, timestamp(us), updated_timestamp(us), acc_x, acc_y, acc_z, ang_x, ang_y, ang_z, temperature_C
269764, 564645562, 569608691, 0.03, -0.73, 2.59, 0.22, -0.85, -0.08, 43.92
269765, 564647546, 569610675, 0.88, -0.10, 0.29, 0.34, -0.57, -0.01, 43.84
269766, 564649560, 569612689, 0.27, 0.80, 1.32, 0.14, -0.02, 0.11, 43.85
269767, 564651575, 569614704, -0.43, 0.68, 1.90, -0.04, 0.66, 0.04, 43.90
269768, 564653559, 569616688, -0.29, -0.32, 1.22, -0.21, 0.22, -0.08, 43.91
269769, 564655573, 569618702, -0.27, -0.60, 0.28, -0.18, -0.26, -0.15, 43.90
269770, 564657557, 569620686, 0.18, -0.82, 2.50, 0.26, -0.79, -0.11, 43.85
269771, 564659571, 569622700, 0.56, -0.25, -0.12, 0.32, -0.37, -0.00, 43.84
269772, 564661555, 569624684, 0.19, 0.81, 1.36, 0.13, 0.17, 0.11, 43.87
269773, 564663570, 569626699, 0.20, 0.71, 0.21, 0.13, 0.66, 0.11, 43.86
269774, 564665553, 569628682, -0.37, 0.54, 1.73, -0.09, 0.47, 0.04, 43.86
269775, 564667568, 569630697, -0.24, -0.38, 1.33, -0.10, -0.06, -0.05, 43.89
269776, 564669552, 569632681, -0.01, -0.57, 0.19, -0.11, -0.42, -0.10, 43.88
269777, 564671627, 569634756, 0.33, -0.70, 2.27, 0.31, -0.61, -0.06, 43.90
269778, 564673550, 569636679, 0.39, 0.10, -0.04, 0.22, -0.11, 0.02, 43.85
269779, 564675564, 569638693, 0.18, 0.86, 1.43, 0.11, 0.33, 0.09, 43.82
269780, 564677548, 569640677, 0.05, 0.72, 0.40, 0.11, 0.57, 0.04, 43.85
269781, 564679562, 569642691, -0.44, 0.15, 1.31, -0.12, 0.29, -0.03, 43.88
269782, 564681546, 569644675, -0.17, -0.46, 1.73, -0.07, -0.22, -0.10, 43.89
269783, 564683561, 569646690, -0.05, -0.84, 0.05, -0.09, -0.46, -0.10, 43.90
269784, 564685575, 569648704, 0.31, -0.50, 2.52, 0.33, -0.46, -0.02, 43.88
269785, 564687559, 569650688, 0.28, 0.34, -0.46, 0.20, -0.02, 0.07, 43.87
269786, 564689573, 569652702, 0.13, 0.97, 1.50, 0.19, 0.29, 0.12, 43.87
269787, 564691557, 569654686, -0.03, 0.85, 0.56, 0.08, 0.44, 0.06, 43.86
269788, 564693571, 569656700, -0.29, -0.01, 0.75, -0.16, 0.25, -0.03, 43.86
269789, 564695555, 569658684, -0.03, -0.54, 2.11, -0.07, -0.25, -0.11, 43.87
269790, 564697570, 569660699, 0.09, -1.02, -0.04, -0.10, -0.51, -0.11, 43.87
269791, 564699554, 569662683, 0.36, -0.42, 2.91, 0.30, -0.45, -0.03, 43.86
269792, 564701629, 569664758, 0.25, 0.31, -0.39, 0.18, 0.03, 0.07, 43.89
269793, 564703552, 569666681, -0.05, 0.92, 1.07, 0.27, 0.40, 0.11, 43.88
269794, 564705566, 569668695, -0.16, 0.98, 0.58, 0.08, 0.44, 0.04, 43.91
269795, 564707550, 569670679, -0.25, -0.10, 0.67, -0.15, 0.17, -0.07, 43.89
269796, 564709564, 569672693, -0.04, -0.49, 2.00, -0.07, -0.44, -0.14, 43.90
269797, 564711548, 569674677, 0.29, -0.91, 0.76, -0.06, -0.65, -0.11, 43.91
269798, 564713563, 569676692, 0.35, -0.48, 2.44, 0.27, -0.42, 0.01, 43.92
269799, 564715546, 569678675, 0.29, 0.41, -0.35, 0.16, 0.20, 0.11, 43.88
269800, 564717561, 569680690, -0.13, 0.75, 0.69, 0.28, 0.56, 0.14, 43.84
269801, 564719575, 569682704, -0.19, 0.99, 0.90, 0.05, 0.37, 0.06, 43.89
269802, 564721559, 569684688, -0.26, -0.10, 0.83, -0.15, 0.02, -0.07, 43.90
269803, 564723573, 569686702, -0.02, -0.69, 1.43, -0.05, -0.58, -0.14, 43.89
269804, 564725557, 569688686, 0.50, -0.83, 1.44, 0.03, -0.69, -0.11, 43.90
269805, 564727572, 569690701, 0.24, -0.37, 2.19, 0.27, -0.36, 0.00, 43.87
269806, 564729556, 569692685, 0.32, 0.64, -0.15, 0.18, 0.34, 0.09, 43.87
269807, 564731600, 569694729, -0.28, 0.82, 0.11, 0.24, 0.64, 0.10, 43.87
269808, 564733554, 569696683, -0.21, 0.88, 1.14, 0.05, 0.28, 0.03, 43.87
269809, 564735568, 569698697, -0.29, -0.24, 1.09, -0.15, -0.14, -0.08, 43.90
269810, 564737552, 569700681, 0.02, -0.88, 1.28, -0.11, -0.58, -0.13, 43.88
269811, 564739566, 569702695, 0.55, -0.84, 1.48, 0.08, -0.59, -0.06, 43.89
269812, 564741550, 569704679, 0.30, -0.39, 2.19, 0.29, -0.32, 0.06, 43.90
269813, 564743565, 569706694, 0.33, 0.77, -0.33, 0.25, 0.34, 0.14, 43.88
269814, 564745548, 569708677, -0.29, 1.01, 0.56, 0.19, 0.62, 0.10, 43.89
269815, 564747563, 569710692, -0.08, 0.92, 0.59, 0.06, 0.26, -0.01, 43.89
269816, 564749547, 569712676, -0.40, -0.26, 1.32, -0.11, -0.22, -0.12, 43.87
269817, 564751561, 569714690, 0.12, -0.92, 1.69, -0.15, -0.61, -0.17, 43.88
269818, 564753575, 569716704, 0.53, -0.89, 1.09, 0.06, -0.52, -0.09, 43.88
269819, 564755559, 569718688, 0.18, -0.48, 1.86, 0.30, -0.27, 0.06, 43.91
269820, 564757574, 569720703, 0.35, 0.68, -0.05, 0.31, 0.36, 0.16, 43.85
269821, 564759558, 569722687, -0.34, 1.09, 0.86, 0.12, 0.61, 0.14, 43.91
269822, 564761572, 569724701, -0.06, 0.79, 0.12, 0.05, 0.30, 0.01, 43.89
269823, 564763556, 569726685, -0.32, -0.26, 1.31, -0.04, -0.29, -0.10, 43.90
269824, 564765570, 569728699, 0.31, -0.84, 2.27, -0.12, -0.68, -0.16, 43.90
269825, 564767554, 569730683, 0.44, -0.87, 0.55, 0.01, -0.48, -0.09, 43.91
269826, 564769568, 569732697, 0.24, -0.35, 2.06, 0.31, -0.17, 0.05, 43.86
269827, 564771552, 569734681, 0.12, 0.72, -0.01, 0.38, 0.42, 0.13, 43.88
269828, 564773567, 569736696, -0.40, 1.14, 0.73, 0.12, 0.62, 0.10, 43.88
269829, 564775550, 569738679, -0.21, 0.68, -0.09, 0.03, 0.27, -0.02, 43.89
269830, 564777565, 569740694, -0.06, -0.27, 1.54, -0.04, -0.40, -0.11, 43.86
269831, 564779549, 569742678, 0.37, -0.86, 2.63, -0.09, -0.73, -0.13, 43.88
269832, 564781563, 569744692, 0.39, -0.98, 0.30, -0.02, -0.35, -0.05, 43.87
269833, 564783547, 569746676, 0.13, -0.26, 2.07, 0.30, 0.02, 0.09, 43.89
269834, 564785561, 569748690, 0.01, 0.64, -0.39, 0.39, 0.46, 0.16, 43.90
269835, 564787576, 569750705, -0.19, 1.19, 1.04, 0.18, 0.48, 0.10, 43.91
269836, 564789560, 569752689, -0.16, 0.58, 0.10, 0.05, 0.13, -0.02, 43.90
269837, 564791574, 569754703, 0.27, -0.03, 1.77, -0.05, -0.36, -0.11, 43.88
269838, 564793558, 569756687, 0.24, -0.85, 2.08, -0.06, -0.61, -0.14, 43.85
269839, 564795572, 569758701, 0.37, -0.82, 0.59, -0.03, -0.18, -0.08, 43.87
269840, 564797556, 569760685, -0.04, -0.33, 1.86, 0.27, 0.14, 0.04, 43.89
269841, 564799570, 569762699, -0.14, 0.44, -0.65, 0.33, 0.41, 0.10, 43.93
269842, 564801554, 569764683, -0.28, 0.98, 1.35, 0.20, 0.28, 0.08, 43.90
269843, 564803569, 569766698, -0.11, 0.53, 0.41, 0.12, -0.03, 0.01, 43.89
269844, 564805552, 569768681, 0.37, -0.02, 1.14, -0.01, -0.27, -0.05, 43.87
269845, 564807567, 569770696, 0.20, -0.72, 2.01, -0.00, -0.47, -0.07, 43.87
269846, 564809551, 569772680, 0.53, -0.51, 1.21, -0.04, -0.12, -0.03, 43.86
269847, 564811565, 569774694, -0.13, -0.35, 1.54, 0.20, 0.17, 0.06, 43.88
269848, 564813549, 569776678, -0.06, 0.36, -0.24, 0.30, 0.42, 0.06, 43.88
269849, 564815563, 569778692, -0.29, 0.78, 0.82, 0.25, 0.24, 0.02, 43.90
269850, 564817547, 569780676, -0.02, 0.48, 0.75, 0.17, -0.11, -0.03, 43.92
269851, 564819561, 569782690, 0.23, -0.51, 2.47, 0.03, -0.36, -0.07, 43.91
269852, 564821545, 569784674, 0.45, -0.45, 1.10, -0.02, -0.00, -0.01, 43.89
269853, 564823560, 569786689, -0.34, -0.36, 1.44, 0.17, 0.28, 0.05, 43.87
269854, 564825574, 569788703, -0.09, 0.34, -0.22, 0.26, 0.44, 0.04, 43.88
269855, 564827558, 569790687, -0.23, 0.48, 0.40, 0.24, 0.14, 0.01, 43.91
269856, 564829572, 569792701, 0.14, 0.46, 1.21, 0.20, -0.33, -0.00, 43.92
269857, 564831556, 569794685, 0.43, 0.13, 0.64, 0.01, -0.37, -0.02, 43.90
269858, 564833571, 569796700, 0.32, -0.32, 2.73, 0.08, -0.18, -0.02, 43.93
269859, 564835554, 569798683, 0.30, -0.44, 0.45, -0.05, 0.25, 0.01, 43.89
269860, 564837569, 569800698, -0.42, -0.32, 1.54, 0.09, 0.44, 0.03, 43.84
269861, 564839553, 569802682, -0.16, 0.22, 0.47, 0.23, 0.35, -0.02, 43.91
269862, 564841567, 569804696, -0.12, 0.29, 0.01, 0.26, -0.03, -0.05, 43.86
269863, 564843551, 569806680, 0.09, 0.49, 1.31, 0.26, -0.48, -0.03, 43.92
269864, 564845565, 569808694, 0.49, 0.21, 0.63, 0.11, -0.37, -0.02, 43.90
269865, 564847549, 569810678, 0.19, -0.15, 2.68, 0.07, 0.03, 0.00, 43.90
269866, 564849563, 569812692, 0.16, -0.29, 0.23, -0.15, 0.42, 0.04, 43.89
269867, 564851547, 569814676, -0.42, -0.39, 1.36, 0.05, 0.42, 0.04, 43.85
269868, 564853562, 569816691, -0.23, 0.10, 1.16, 0.24, 0.14, -0.02, 43.86
269869, 564855546, 569818675, 0.02, 0.13, -0.21, 0.28, -0.12, -0.04, 43.82
269870, 564857560, 569820689, 0.11, 0.49, 1.33, 0.29, -0.50, -0.02, 43.86
269871, 564859574, 569822703, 0.70, 0.19, 0.33, 0.17, -0.35, -0.01, 43.89
269872, 564861558, 569824687, 0.25, 0.10, 3.14, 0.03, 0.06, 0.01, 43.84
269873, 564863573, 569826702, 0.17, -0.26, -0.12, -0.18, 0.48, 0.03, 43.87
269874, 564865556, 569828685, -0.54, -0.37, 1.48, 0.07, 0.50, 0.01, 43.92
269875, 564867571, 569830700, -0.35, 0.01, 1.18, 0.22, 0.15, -0.05, 43.90
269876, 564869555, 569832684, -0.05, 0.06, -0.48, 0.24, -0.14, -0.07, 43.89
269877, 564871569, 569834698, 0.12, 0.49, 1.53, 0.29, -0.58, -0.03, 43.84
269878, 564873553, 569836682, 0.76, 0.13, 0.55, 0.22, -0.40, -0.01, 43.82
269879, 564875567, 569838696, 0.30, 0.27, 3.09, 0.01, 0.03, 0.05, 43.87
269880, 564877551, 569840680, 0.08, -0.30, -0.17, -0.20, 0.56, 0.07, 43.91
269881, 564879565, 569842694, -0.59, -0.38, 1.13, 0.04, 0.64, 0.04, 43.93
269882, 564881549, 569844678, -0.31, -0.02, 1.60, 0.20, 0.14, -0.04, 43.90
269883, 564883564, 569846693, 0.05, 0.04, -0.81, 0.20, -0.26, -0.07, 43.88
269884, 564885548, 569848677, 0.32, 0.47, 1.82, 0.34, -0.73, -0.05, 43.89
269885, 564887562, 569850691, 0.79, 0.22, 0.46, 0.27, -0.41, -0.03, 43.86
269886, 564889546, 569852675, 0.25, 0.23, 2.87, -0.03, 0.13, 0.04, 43.95
269887, 564891560, 569854689, -0.00, -0.29, 0.05, -0.24, 0.73, 0.04, 43.89
269888, 564893575, 569856704, -0.66, -0.49, 0.66, -0.06, 0.74, 0.00, 43.89
269889, 564895558, 569858687, -0.28, -0.06, 1.96, 0.22, 0.02, -0.05, 43.90
269890, 564897573, 569860702, -0.04, 0.08, -0.66, 0.24, -0.43, -0.07, 43.88
269891, 564899557, 569862686, 0.33, 0.51, 1.56, 0.41, -0.76, -0.04, 43.85
269892, 564901571, 569864700, 0.72, 0.32, 0.50, 0.26, -0.35, 0.00, 43.90
269893, 564903555, 569866684, 0.26, 0.17, 2.81, -0.12, 0.17, 0.06, 43.92
269894, 564905569, 569868698, -0.01, -0.21, 0.56, -0.28, 0.76, 0.05, 43.88
269895, 564907553, 569870682, -0.55, -0.63, 0.55, -0.10, 0.73, 0.00, 43.93
269896, 564909567, 569872696, -0.28, -0.19, 1.54, 0.31, -0.04, -0.04, 43.86
269897, 564911551, 569874680, -0.23, 0.25, -0.63, 0.28, -0.49, -0.06, 43.85
269898, 564913566, 569876695, 0.45, 0.70, 1.95, 0.40, -0.66, -0.07, 43.87
269899, 564915550, 569878679, 0.67, 0.41, 0.21, 0.18, -0.28, -0.03, 43.90
269900, 564917564, 569880693, 0.30, 0.07, 2.70, -0.16, 0.16, 0.03, 43.92
269901, 564919548, 569882677, -0.13, -0.26, 0.97, -0.26, 0.65, 0.04, 43.93
269902, 564921562, 569884691, -0.48, -0.89, 0.43, -0.11, 0.67, 0.01, 43.91
269903, 564923546, 569886675, -0.33, -0.15, 1.35, 0.32, -0.01, -0.01, 43.94
269904, 564925560, 569888689, -0.10, 0.36, -0.19, 0.33, -0.49, -0.02, 43.89
269905, 564927575, 569890704, 0.57, 0.73, 1.69, 0.43, -0.61, -0.04, 43.88
269906, 564929559, 569892688, 0.64, 0.60, 0.56, 0.07, -0.27, -0.00, 43.90
269907, 564931573, 569894702, 0.25, 0.03, 2.06, -0.16, 0.23, 0.03, 43.97
269908, 564933557, 569896686, -0.19, -0.44, 1.29, -0.23, 0.65, 0.01, 43.94
269909, 564935571, 569898700, -0.32, -0.94, 0.10, -0.13, 0.63, -0.03, 43.92
269910, 564937555, 569900684, -0.43, -0.04, 1.58, 0.28, -0.12, -0.04, 43.88
269911, 564939569, 569902698, 0.05, 0.18, -0.18, 0.39, -0.61, -0.04, 43.89
269912, 564941553, 569904682, 0.44, 0.77, 1.84, 0.45, -0.59, -0.02, 43.90
269913, 564943568, 569906697, 0.56, 0.65, 0.55, -0.01, -0.14, 0.02, 43.89
269914, 564945551, 569908680, 0.13, -0.04, 1.61, -0.18, 0.43, 0.04, 43.90
269915, 564947566, 569910695, -0.25, -0.46, 1.36, -0.23, 0.61, 0.02, 43.93
269916, 564949550, 569912679, -0.21, -0.77, 0.33, -0.10, 0.43, -0.02, 43.90
269917, 564951564, 569914693, -0.43, -0.01, 1.66, 0.29, -0.32, -0.03, 43.91
269918, 564953548, 569916677, 0.29, 0.18, -0.56, 0.44, -0.60, -0.03, 43.91
269919, 564955562, 569918691, 0.53, 0.88, 2.43, 0.37, -0.46, -0.01, 43.90
269920, 564957546, 569920675, 0.53, 0.48, 0.42, -0.09, 0.01, 0.03, 43.93
269921, 564959561, 569922690, -0.20, -0.23, 1.09, -0.20, 0.58, 0.03, 43.90
269922, 564961575, 569924704, -0.27, -0.52, 1.58, -0.19, 0.56, -0.00, 43.87
269923, 564963559, 569926688, -0.30, -0.62, 0.56, -0.05, 0.25, -0.04, 43.90
269924, 564965573, 569928702, -0.39, -0.00, 1.40, 0.32, -0.45, -0.04, 43.89
269925, 564967557, 569930686, 0.64, 0.48, 0.03, 0.48, -0.56, -0.05, 43.87
269926, 564969571, 569932700, 0.35, 0.84, 1.57, 0.27, -0.41, -0.01, 43.87
269927, 564971555, 569934684, 0.59, 0.41, 1.02, -0.12, 0.06, 0.03, 43.95
269928, 564973570, 569936699, -0.32, -0.44, 1.05, -0.29, 0.61, 0.04, 43.92
269929, 564975553, 569938682, -0.22, -0.84, 1.28, -0.18, 0.49, 0.03, 43.94
269930, 564977568, 569940697, -0.37, -0.48, 0.65, 0.05, 0.10, 0.01, 43.93
269931, 564979552, 569942681, -0.26, 0.19, 1.70, 0.42, -0.48, -0.00, 43.88
269932, 564981566, 569944695, 0.63, 0.64, -0.50, 0.53, -0.44, -0.05, 43.92
269933, 564983550, 569946679, 0.25, 1.01, 1.85, 0.15, -0.36, -0.05, 43.87
269934, 564985564, 569948693, 0.52, 0.36, 1.15, -0.18, 0.04, -0.03, 43.90
269935, 564987548, 569950677, -0.26, -1.08, 0.78, -0.13, 0.45, -0.01, 43.95
269936, 564989563, 569952692, -0.41, -0.51, 0.34, 0.16, 0.02, 0.03, 43.91
269937, 564991546, 569954675, -0.04, 0.21, 2.06, 0.47, -0.58, 0.05, 43.85
269938, 564993561, 569956690, 0.56, 0.84, -0.37, 0.43, -0.42, 0.02, 43.91
269939, 564995575, 569958704, 0.42, 1.18, 2.46, 0.08, -0.29, 0.02, 43.88
269940, 564997559, 569960688, 0.36, 0.26, 0.32, -0.09, 0.13, -0.00, 43.86
269941, 564999573, 569962702, -0.39, -0.60, 1.82, -0.29, 0.47, -0.05, 43.88
269942, 565001557, 569964686, -0.29, -1.19, 0.04, -0.18, 0.36, -0.07, 43.89
269943, 565003572, 569966701, -0.32, -0.42, 0.90, 0.16, -0.14, -0.04, 43.91
269944, 565005555, 569968684, 0.04, -0.01, 1.98, 0.55, -0.69, 0.01, 43.89
269945, 565007570, 569970699, 0.45, 0.93, 0.15, 0.38, -0.42, 0.02, 43.87
269946, 565009554, 569972683, 0.49, 1.03, 1.88, 0.04, -0.15, 0.04, 43.88
269947, 565011568, 569974697, 0.13, 0.23, 0.06, -0.05, 0.26, 0.02, 43.91
269948, 565013552, 569976681, -0.28, -0.42, 1.98, -0.24, 0.37, -0.02, 43.92
269949, 565015566, 569978695, -0.12, -1.02, -0.15, -0.16, 0.19, -0.06, 43.89
269950, 565017550, 569980679, -0.25, -0.33, 1.11, 0.16, -0.32, -0.04, 43.90
269951, 565019565, 569982694, 0.10, -0.06, 1.76, 0.56, -0.68, 0.02, 43.90
269952, 565021548, 569984677, 0.39, 0.82, 0.70, 0.31, -0.31, 0.04, 43.90
269953, 565023563, 569986692, 0.32, 0.85, 1.70, 0.00, 0.03, 0.05, 43.93
269954, 565025547, 569988676, 0.07, 0.14, -0.25, -0.08, 0.36, 0.00, 43.90
269955, 565027561, 569990690, -0.27, -0.49, 1.99, -0.18, 0.19, -0.06, 43.92
269956, 565029575, 569992704, -0.18, -0.74, 0.29, -0.07, -0.08, -0.10, 43.87
269957, 565031559, 569994688, -0.16, -0.21, 1.03, 0.25, -0.43, -0.06, 43.88
269958, 565033574, 569996703, 0.28, 0.13, 1.41, 0.56, -0.58, 0.01, 43.89
269959, 565035557, 569998686, 0.42, 0.76, 0.74, 0.20, -0.25, 0.06, 43.93
269960, 565037572, 570000701, 0.21, 0.68, 2.00, -0.04, 0.09, 0.08, 43.92
269961, 565039556, 570002685, -0.01, -0.06, -0.16, -0.15, 0.43, 0.04, 43.89
269962, 565041570, 570004699, -0.26, -0.51, 1.62, -0.11, 0.16, -0.02, 43.89
269963, 565043554, 570006683, -0.24, -0.58, 0.39, 0.04, -0.25, -0.07, 43.92
269964, 565045568, 570008697, -0.05, -0.19, 1.29, 0.27, -0.51, -0.06, 43.92
269965, 565047552, 570010681, 0.31, 0.37, 1.38, 0.48, -0.51, -0.01, 43.90
269966, 565049566, 570012695, 0.41, 0.59, 0.74, 0.16, -0.18, 0.02, 43.90
269967, 565051550, 570014679, 0.08, 0.45, 1.56, -0.01, 0.12, 0.05, 43.85
269968, 565053565, 570016694, 0.05, -0.14, 0.27, -0.17, 0.36, 0.01, 43.86
269969, 565055549, 570018678, -0.16, -0.54, 0.98, -0.08, 0.10, -0.02, 43.89
269970, 565057563, 570020692, -0.18, -0.42, 0.90, 0.13, -0.33, -0.04, 43.90
269971, 565059547, 570022676, 0.03, 0.05, 1.40, 0.28, -0.47, -0.02, 43.91
269972, 565061561, 570024690, 0.25, 0.36, 1.31, 0.38, -0.35, 0.01, 43.89
269973, 565063576, 570026705, 0.28, 0.52, 0.60, 0.10, -0.08, 0.03, 43.88
269974, 565065559, 570028688, 0.08, 0.29, 1.45, -0.02, 0.08, 0.04, 43.88
269975, 565067574, 570030703, 0.06, -0.14, 0.49, -0.16, 0.19, 0.00, 43.90
269976, 565069558, 570032687, -0.20, -0.53, 0.88, -0.02, 0.01, -0.03, 43.92
269977, 565071572, 570034701, 0.02, -0.23, 1.15, 0.21, -0.33, -0.04, 43.91
269978, 565073556, 570036685, 0.05, 0.13, 1.18, 0.27, -0.39, -0.02, 43.90
269979, 565075570, 570038699, 0.23, 0.26, 1.49, 0.28, -0.23, -0.00, 43.89
269980, 565077554, 570040683, 0.17, 0.45, 0.64, 0.04, -0.03, 0.01, 43.89
269981, 565079568, 570042697, 0.07, 0.13, 1.15, 0.00, 0.04, 0.03, 43.96
269982, 565081552, 570044681, 0.05, -0.03, 0.77, -0.10, 0.05, 0.02, 43.93
269983, 565083567, 570046696, -0.10, -0.40, 0.49, 0.03, 0.01, -0.02, 43.86
269984, 565085551, 570048680, 0.02, 0.00, 1.34, 0.23, -0.22, -0.03, 43.89
269985, 565087565, 570050694, -0.01, 0.12, 1.22, 0.18, -0.27, -0.03, 43.89
269986, 565089549, 570052678, 0.28, 0.08, 2.01, 0.15, -0.21, -0.03, 43.94
269987, 565091563, 570054692, 0.08, 0.10, 0.32, 0.01, -0.08, -0.00, 43.87
269988, 565093547, 570056676, 0.15, 0.01, 0.75, 0.07, -0.02, 0.03, 43.88
269989, 565095561, 570058690, -0.03, 0.04, 0.54, 0.01, -0.03, 0.04, 43.91
269990, 565097576, 570060705, 0.10, 0.00, 0.82, 0.09, 0.03, 0.01, 43.90
269991, 565099560, 570062689, 0.02, 0.17, 1.18, 0.16, -0.13, -0.01, 43.86
269992, 565101574, 570064703, 0.16, 0.19, 1.48, 0.10, -0.17, -0.03, 43.90
269993, 565103558, 570066687, 0.13, -0.14, 2.09, 0.08, -0.18, -0.04, 43.86
269994, 565105572, 570068701, -0.06, -0.17, 0.46, -0.04, -0.02, -0.02, 43.89
269995, 565107556, 570070685, 0.01, -0.08, 0.35, 0.06, 0.04, 0.00, 43.90
269996, 565109570, 570072699, -0.02, 0.02, 0.66, 0.12, -0.11, 0.03, 43.91
269997, 565111554, 570074683, 0.23, 0.21, 0.85, 0.17, -0.10, 0.03, 43.89
269998, 565113569, 570076698, 0.04, 0.38, 1.29, 0.10, -0.16, 0.01, 43.90
269999, 565115553, 570078682, 0.36, 0.18, 1.32, 0.06, -0.04, -0.01, 43.85
270000, 565117567, 570080696, -0.08, -0.20, 2.29, 0.03, -0.05, -0.02, 43.87
270001, 565119551, 570082680, -0.08, -0.23, 0.69, -0.08, 0.08, -0.03, 43.87
270002, 565121565, 570084694, -0.05, -0.09, -0.32, -0.01, 0.06, -0.02, 43.92
270003, 565123549, 570086678, 0.10, 0.02, 0.89, 0.25, -0.22, 0.01, 43.90
270004, 565125563, 570088692, 0.27, 0.38, 0.76, 0.23, -0.22, 0.02, 43.91
270005, 565127547, 570090676, 0.06, 0.31, 1.58, 0.01, -0.07, 0.00, 43.89
270006, 565129562, 570092691, 0.39, 0.10, 1.27, -0.04, 0.16, -0.03, 43.83
270007, 565131545, 570094674, -0.13, -0.43, 2.16, -0.03, 0.03, -0.01, 43.91
270008, 565133560, 570096689, -0.04, -0.28, 1.55, -0.01, -0.00, -0.01, 43.93
270009, 565135574, 570098703, -0.11, -0.07, -1.05, 0.03, 0.01, 0.00, 43.89
270010, 565137558, 570100687, 0.06, 0.25, 0.37, 0.35, -0.18, 0.02, 43.92
270011, 565139572, 570102701, 0.25, 0.66, 1.06, 0.25, -0.20, 0.03, 43.92
270012, 565141556, 570104685, 0.22, 0.40, 2.01, -0.05, 0.03, -0.02, 43.93
270013, 565143571, 570106700, 0.21, -0.08, 1.45, -0.18, 0.21, -0.06, 43.91
270014, 565145555, 570108684, -0.03, -0.76, 1.63, -0.11, 0.08, -0.04, 43.93
270015, 565147569, 570110698, -0.21, -0.49, 1.94, 0.06, -0.09, -0.01, 43.91
270016, 565149553, 570112682, -0.04, -0.19, -1.44, 0.10, 0.05, 0.02, 43.88
270017, 565151659, 570114788, 0.30, 0.85, 0.43, 0.24, -0.24, 0.04, 43.93
270018, 565153551, 570116680, 0.30, 0.85, 0.43, 0.24, -0.24, 0.04, 43.93
270019, 565155565, 570118694, 0.15, -0.15, 1.63, -0.28, 0.18, -0.04, 43.92
270020, 565157549, 570120678, -0.03, -0.90, 0.48, -0.18, 0.33, -0.03, 43.93
270021, 565159564, 570122693, -0.49, -0.56, 2.17, 0.11, 0.03, -0.01, 43.88
270022, 565161547, 570124676, 0.04, -0.29, -1.27, 0.15, 0.02, -0.02, 43.88
270023, 565163562, 570126691, 0.02, 0.57, 0.59, 0.33, -0.22, 0.01, 43.90
270024, 565165546, 570128675, 0.59, 0.77, 0.19, 0.24, -0.40, 0.04, 43.94
270025, 565167560, 570130689, 0.34, 0.56, 3.44, 0.05, -0.07, 0.02, 43.96
270026, 565169574, 570132703, 0.02, -0.05, 2.17, -0.28, 0.35, 0.02, 43.91
270027, 565171558, 570134687, -0.22, -0.69, -0.52, -0.25, 0.69, 0.00, 43.91
270028, 565173573, 570136702, -0.59, -0.56, 2.13, 0.13, 0.09, -0.02, 43.93
270029, 565175556, 570138685, 0.25, -0.22, -0.91, 0.22, -0.22, -0.06, 43.90
270030, 565177571, 570140700, 0.02, 0.50, 0.70, 0.25, -0.48, -0.04, 43.90
270031, 565179555, 570142684, 0.85, 0.73, 0.36, 0.23, -0.42, 0.01, 43.87
270032, 565181569, 570144698, 0.31, 0.36, 2.90, 0.07, 0.14, 0.04, 43.88
270033, 565183553, 570146682, -0.08, -0.08, 2.83, -0.27, 0.56, 0.06, 43.89
270034, 565185567, 570148696, -0.35, -0.55, -1.08, -0.32, 0.83, 0.03, 43.91
270035, 565187551, 570150680, -0.56, -0.55, 2.12, 0.14, -0.01, -0.02, 43.92
270036, 565189566, 570152695, 0.25, -0.15, -0.42, 0.31, -0.44, -0.07, 43.86
270037, 565191549, 570154678, -0.00, 0.62, 0.57, 0.24, -0.52, -0.05, 43.88
270038, 565193564, 570156693, 0.88, 0.78, 0.14, 0.24, -0.26, -0.02, 43.92
270039, 565195548, 570158677, 0.32, 0.27, 2.65, 0.02, 0.24, 0.02, 43.94
270040, 565197562, 570160691, -0.08, -0.18, 3.34, -0.29, 0.51, 0.06, 43.91
270041, 565199546, 570162675, -0.39, -0.69, -0.98, -0.38, 0.82, 0.03, 43.93
270042, 565201560, 570164689, -0.59, -0.67, 1.92, 0.16, 0.04, -0.01, 43.94
270043, 565203575, 570166704, 0.12, -0.12, -0.65, 0.43, -0.45, -0.04, 43.90
270044, 565205558, 570168687, 0.08, 0.83, 0.87, 0.27, -0.56, -0.04, 43.91
270045, 565207573, 570170702, 0.79, 0.93, 0.08, 0.24, -0.25, -0.03, 43.92
270046, 565209557, 570172686, 0.35, 0.41, 2.51, -0.05, 0.25, -0.00, 43.95
270047, 565211571, 570174700, 0.01, -0.40, 3.44, -0.30, 0.47, 0.04, 43.91
270048, 565213555, 570176684, -0.36, -0.93, -1.07, -0.41, 0.74, 0.01, 43.92
270049, 565215569, 570178698, -0.61, -0.83, 1.62, 0.13, 0.06, -0.01, 43.94
270050, 565217553, 570180682, 0.19, -0.00, -0.56, 0.50, -0.46, -0.01, 43.91
270051, 565219568, 570182697, 0.13, 0.87, 0.82, 0.36, -0.57, -0.01, 43.94
270052, 565221551, 570184680, 0.68, 1.20, 0.74, 0.24, -0.20, -0.02, 43.94
270053, 565223566, 570186695, 0.39, 0.51, 2.30, -0.16, 0.30, 0.00, 43.89
270054, 565225550, 570188679, -0.08, -0.52, 2.69, -0.29, 0.48, 0.02, 43.93
270055, 565227564, 570190693, -0.34, -1.01, -0.45, -0.36, 0.59, -0.02, 43.90
270056, 565229548, 570192677, -0.57, -0.94, 1.38, 0.13, -0.04, -0.02, 43.89
270057, 565231562, 570194691, 0.14, -0.03, -0.42, 0.48, -0.49, -0.01, 43.91
270058, 565233546, 570196675, 0.14, 0.77, 0.57, 0.38, -0.51, 0.01, 43.89
270059, 565235560, 570198689, 0.65, 1.20, 1.59, 0.26, -0.11, 0.02, 43.89
270060, 565237575, 570200704, 0.29, 0.64, 1.74, -0.20, 0.37, 0.03, 43.90
270061, 565239559, 570202688, -0.24, -0.37, 2.31, -0.24, 0.45, -0.00, 43.90
270062, 565241573, 570204702, -0.36, -0.99, -0.18, -0.27, 0.32, -0.05, 43.90
270063, 565243557, 570206686, -0.38, -0.91, 1.50, 0.13, -0.22, -0.05, 43.87
270064, 565245571, 570208700, 0.17, -0.06, -0.79, 0.41, -0.52, -0.02, 43.93
270065, 565247555, 570210684, 0.31, 0.68, 1.02, 0.37, -0.41, 0.03, 43.88
270066, 565249570, 570212699, 0.70, 1.20, 2.15, 0.24, -0.03, 0.07, 43.90
270067, 565251553, 570214682, 0.03, 0.57, 1.20, -0.21, 0.47, 0.08, 43.89
270068, 565253568, 570216697, -0.28, -0.27, 2.10, -0.20, 0.50, 0.00, 43.88
270069, 565255552, 570218681, -0.37, -0.99, -0.46, -0.21, 0.16, -0.08, 43.92
270070, 565257566, 570220695, -0.37, -0.88, 1.69, 0.14, -0.44, -0.10, 43.95
270071, 565259550, 570222679, 0.24, 0.12, -0.44, 0.37, -0.61, -0.06, 43.91
270072, 565261564, 570224693, 0.41, 0.64, 1.04, 0.36, -0.35, 0.01, 43.91
270073, 565263548, 570226677, 0.51, 1.03, 1.89, 0.22, 0.06, 0.09, 43.95
270074, 565265562, 570228691, 0.00, 0.53, 1.49, -0.20, 0.52, 0.10, 43.91
270075, 565267546, 570230675, -0.31, -0.43, 1.79, -0.22, 0.49, 0.01, 43.90
270076, 565269561, 570232690, -0.20, -0.95, -0.52, -0.19, 0.02, -0.06, 43.94
270077, 565271575, 570234704, -0.23, -0.77, 1.79, 0.20, -0.62, -0.08, 43.92
270078, 565273559, 570236688, 0.27, 0.23, -0.47, 0.38, -0.61, -0.05, 43.93
270079, 565275573, 570238702, 0.53, 0.85, 1.70, 0.34, -0.16, 0.01, 43.94
270080, 565277557, 570240686, 0.31, 0.97, 0.98, 0.14, 0.20, 0.07, 43.93
270081, 565279571, 570242700, -0.04, 0.41, 1.77, -0.19, 0.48, 0.06, 43.92
270082, 565281555, 570244684, -0.39, -0.69, 1.75, -0.24, 0.35, -0.04, 43.92
270083, 565283570, 570246699, -0.12, -1.00, -0.63, -0.18, -0.09, -0.09, 43.91
270084, 565285554, 570248683, -0.26, -0.73, 1.89, 0.28, -0.70, -0.05, 43.90
270085, 565287568, 570250697, 0.36, 0.35, -0.07, 0.43, -0.58, 0.00, 43.92
270086, 565289552, 570252681, 0.50, 1.10, 1.80, 0.32, -0.03, 0.06, 43.91
270087, 565291566, 570254695, 0.24, 0.96, 0.52, 0.05, 0.31, 0.11, 43.91
270088, 565293550, 570256679, 0.01, 0.24, 1.62, -0.17, 0.44, 0.05, 43.88
270089, 565295564, 570258693, -0.31, -0.75, 1.97, -0.27, 0.17, -0.06, 43.88
270090, 565297548, 570260677, -0.00, -1.08, -0.75, -0.19, -0.18, -0.11, 43.92
270091, 565299563, 570262692, -0.23, -0.67, 1.83, 0.33, -0.68, -0.05, 43.92
270092, 565301546, 570264675, 0.40, 0.44, 0.17, 0.47, -0.49, 0.01, 43.89
270093, 565303561, 570266690, 0.37, 1.26, 1.81, 0.31, 0.06, 0.07, 43.90
270094, 565305575, 570268704, 0.03, 0.99, 0.60, -0.04, 0.42, 0.09, 43.88
270095, 565307559, 570270688, -0.15, 0.13, 1.20, -0.18, 0.48, 0.01, 43.92
270096, 565309573, 570272702, -0.35, -0.73, 2.22, -0.28, 0.00, -0.10, 43.92
270097, 565311557, 570274686, 0.03, -1.31, -0.69, -0.18, -0.34, -0.12, 43.89
270098, 565313572, 570276701, -0.00, -0.72, 1.75, 0.34, -0.76, -0.03, 43.90
270099, 565315556, 570278685, 0.61, 0.35, 0.24, 0.46, -0.44, 0.07, 43.89
270100, 565317570, 570280699, 0.39, 1.44, 1.85, 0.32, 0.15, 0.15, 43.93
270101, 565319554, 570282683, 0.01, 1.12, 0.92, -0.02, 0.55, 0.13, 43.93
270102, 565321568, 570284697, -0.37, -0.67, 2.40, -0.29, -0.11, -0.15, 43.90
270103, 565323552, 570286681, -0.37, -0.67, 2.40, -0.29, -0.11, -0.15, 43.90
270104, 565325566, 570288695, 0.08, -0.73, 2.08, 0.34, -0.82, -0.09, 43.87
270105, 565327550, 570290679, 0.67, 0.33, 0.49, 0.48, -0.39, 0.05, 43.96
270106, 565329565, 570292694, 0.27, 1.23, 1.33, 0.29, 0.23, 0.17, 43.95
270107, 565331548, 570294677, -0.07, 1.29, 1.70, -0.01, 0.64, 0.15, 43.90
270108, 565333563, 570296692, -0.34, 0.05, -0.19, -0.23, 0.61, 0.01, 43.91
270109, 565335547, 570298676, -0.31, -0.74, 2.16, -0.24, -0.24, -0.11, 43.93
270110, 565337561, 570300690, -0.06, -1.24, -0.22, -0.11, -0.69, -0.16, 43.91
270111, 565339575, 570302704, 0.18, -0.59, 1.57, 0.34, -0.75, -0.08, 43.90
270112, 565341559, 570304688, 0.76, 0.43, 0.60, 0.45, -0.25, 0.05, 43.92
270113, 565343574, 570306703, 0.29, 1.22, 1.47, 0.25, 0.28, 0.15, 43.92
270114, 565345558, 570308687, -0.03, 1.14, 2.12, 0.01, 0.61, 0.12, 43.93
270115, 565347572, 570310701, -0.32, -0.07, -0.58, -0.31, 0.56, -0.01, 43.98
270116, 565349556, 570312685, -0.29, -0.75, 2.16, -0.21, -0.28, -0.12, 43.93
270117, 565351570, 570314699, -0.16, -1.22, 0.02, -0.01, -0.71, -0.14, 43.95
270118, 565353554, 570316683, 0.20, -0.60, 1.09, 0.32, -0.56, -0.06, 43.93
270119, 565355568, 570318697, 0.57, 0.68, 0.84, 0.39, -0.14, 0.06, 43.93
270120, 565357552, 570320681, 0.31, 1.15, 1.45, 0.23, 0.23, 0.13, 43.95
270121, 565359567, 570322696, 0.01, 1.02, 2.27, 0.07, 0.41, 0.11, 43.92
270122, 565361550, 570324679, -0.18, -0.13, -0.35, -0.31, 0.40, -0.01, 43.95
270123, 565363565, 570326694, -0.13, -0.80, 1.42, -0.17, -0.22, -0.10, 43.90
270124, 565365549, 570328678, -0.14, -1.24, 0.12, -0.00, -0.62, -0.10, 43.93
270125, 565367563, 570330692, 0.28, -0.48, 1.80, 0.25, -0.42, -0.04, 43.94
270126, 565369547, 570332676, 0.36, 0.65, 0.96, 0.33, -0.06, 0.06, 43.93
270127, 565371561, 570334690, 0.17, 1.03, 0.62, 0.28, 0.31, 0.11, 43.91
270128, 565373576, 570336705, -0.11, 0.93, 2.01, 0.15, 0.32, 0.07, 43.93
270129, 565375560, 570338689, -0.10, -0.03, -0.15, -0.27, 0.19, -0.05, 43.92
270130, 565377574, 570340703, -0.04, -0.66, 1.51, -0.19, -0.30, -0.12, 43.94
270131, 565379558, 570342687, 0.15, -1.16, 0.44, 0.01, -0.58, -0.09, 43.96
270132, 565381572, 570344701, 0.29, -0.36, 1.85, 0.24, -0.30, 0.00, 43.92
270133, 565383556, 570346685, 0.17, 0.63, 1.02, 0.31, 0.07, 0.10, 43.89
270134, 565385570, 570348699, -0.01, 0.94, 0.66, 0.26, 0.47, 0.13, 43.93
270135, 565387554, 570350683, -0.25, 0.73, 1.43, 0.08, 0.34, 0.07, 43.95
270136, 565389569, 570352698, 0.04, -0.06, 0.03, -0.25, 0.02, -0.06, 43.94
270137, 565391552, 570354681, -0.05, -0.73, 1.70, -0.13, -0.46, -0.13, 43.92
270138, 565393567, 570356696, 0.34, -0.84, 0.80, 0.08, -0.54, -0.10, 43.93
270139, 565395551, 570358680, 0.24, -0.22, 1.34, 0.24, -0.13, -0.01, 43.93
270140, 565397565, 570360694, 0.16, 0.64, 1.57, 0.30, 0.20, 0.08, 43.95
270141, 565399549, 570362678, -0.04, 0.95, 0.64, 0.19, 0.52, 0.09, 43.93
270142, 565401563, 570364692, -0.29, 0.39, 0.47, 0.03, 0.25, 0.04, 43.89
270143, 565403547, 570366676, 0.10, -0.21, 0.57, -0.16, -0.18, -0.05, 43.93
270144, 565405561, 570368690, -0.06, -0.72, 1.94, -0.09, -0.49, -0.08, 43.93
270145, 565407545, 570370674, 0.42, -0.65, 0.59, 0.10, -0.31, -0.05, 44.00
270146, 565409560, 570372689, 0.18, 0.02, 1.21, 0.20, 0.06, 0.02, 43.95
270147, 565411574, 570374703, 0.16, 0.66, 1.96, 0.31, 0.17, 0.06, 43.94
270148, 565413558, 570376687, -0.11, 0.87, 0.57, 0.14, 0.38, 0.04, 43.96
270149, 565415572, 570378701, -0.29, 0.22, 0.04, -0.01, 0.13, -0.02, 43.92
270150, 565417556, 570380685, 0.12, -0.30, 0.49, -0.08, -0.25, -0.07, 43.94
270151, 565419571, 570382700, 0.01, -0.75, 2.20, -0.05, -0.44, -0.06, 43.91
270152, 565421554, 570384683, 0.38, -0.64, 0.48, 0.03, -0.15, -0.01, 43.88
270153, 565423569, 570386698, 0.29, 0.12, 1.58, 0.15, 0.16, 0.07, 43.90
270154, 565425553, 570388682, 0.10, 0.67, 2.07, 0.37, 0.19, 0.09, 43.97
270155, 565427567, 570390696, -0.14, 0.83, 0.34, 0.16, 0.40, 0.04, 43.94
270156, 565429551, 570392680, -0.31, 0.22, -0.19, -0.03, 0.15, -0.06, 43.91
270157, 565431565, 570394694, 0.06, -0.14, 0.85, -0.04, -0.33, -0.12, 43.98
270158, 565433549, 570396678, 0.10, -0.76, 1.59, -0.02, -0.53, -0.09, 43.96
270159, 565435563, 570398692, 0.33, -0.53, 0.90, -0.01, -0.14, -0.02, 43.96
270160, 565437547, 570400676, 0.42, 0.02, 1.39, 0.12, 0.22, 0.07, 43.90
270161, 565439562, 570402691, -0.10, 0.48, 2.49, 0.35, 0.29, 0.12, 43.88
270162, 565441546, 570404675, -0.20, 0.72, 0.07, 0.12, 0.45, 0.07, 43.91
270163, 565443560, 570406689, -0.24, 0.12, -0.52, -0.04, 0.16, -0.05, 43.96
270164, 565445574, 570408703, 0.18, 0.05, 1.26, 0.06, -0.46, -0.10, 43.95
270165, 565447558, 570410687, 0.32, -0.60, 1.20, 0.03, -0.59, -0.08, 43.91
270166, 565449573, 570412702, 0.28, -0.26, 1.35, -0.03, -0.10, -0.02, 43.90
270167, 565451556, 570414685, 0.43, 0.02, 1.16, 0.09, 0.43, 0.04, 43.92
270168, 565453571, 570416700, -0.32, 0.33, 2.36, 0.27, 0.47, 0.07, 43.94
270169, 565455555, 570418684, -0.31, 0.44, 0.56, 0.07, 0.37, 0.03, 43.92
270170, 565457569, 570420698, -0.24, 0.00, -0.66, -0.05, -0.01, -0.06, 43.90
270171, 565459553, 570422682, 0.23, -0.01, 1.29, 0.16, -0.59, -0.06, 43.90
270172, 565461567, 570424696, 0.49, -0.34, 0.72, 0.13, -0.53, -0.00, 43.94
270173, 565463551, 570426680, 0.36, -0.01, 1.87, -0.02, 0.03, 0.05, 43.93
270174, 565465565, 570428694, 0.35, 0.19, 0.95, -0.01, 0.62, 0.06, 43.94
270175, 565467549, 570430678, -0.46, 0.31, 2.39, 0.14, 0.61, 0.05, 43.96
270176, 565469564, 570432693, -0.38, 0.02, 0.41, 0.08, 0.26, -0.03, 43.94
270177, 565471548, 570434677, -0.17, -0.18, -0.45, -0.04, -0.17, -0.11, 43.94
270178, 565473562, 570436691, 0.27, -0.04, 1.44, 0.21, -0.69, -0.08, 43.91
270179, 565475546, 570438675, 0.60, -0.09, 0.11, 0.16, -0.45, 0.01, 43.93
270180, 565477560, 570440689, 0.42, 0.21, 2.52, 0.07, 0.12, 0.07, 43.88
270181, 565479575, 570442704, 0.26, 0.34, 0.72, -0.05, 0.70, 0.09, 43.95
270182, 565481558, 570444687, -0.57, 0.14, 2.14, -0.02, 0.72, 0.05, 43.94
270183, 565483573, 570446702, -0.42, -0.06, 0.78, 0.06, 0.22, -0.03, 43.94
270184, 565485557, 570448686, -0.10, -0.38, -0.78, -0.01, -0.22, -0.11, 43.88
270185, 565487571, 570450700, 0.56, 0.04, -0.51, 0.14, -0.39, 0.01, 43.90
270186, 565489555, 570452684, 0.39, 0.24, 3.22, 0.12, 0.13, 0.06, 43.90
270187, 565491569, 570454698, 0.19, 0.30, 0.58, -0.08, 0.69, 0.08, 43.92
270188, 565493553, 570456682, -0.49, 0.01, 1.80, -0.08, 0.77, 0.03, 43.90
270189, 565495567, 570458696, -0.38, -0.16, 0.93, 0.10, 0.17, -0.05, 43.91
270190, 565497551, 570460680, 0.04, -0.29, -0.84, 0.05, -0.33, -0.10, 43.95
270191, 565499566, 570462695, 0.18, 0.13, 1.87, 0.21, -0.74, -0.04, 43.96
270192, 565501550, 570464679, 0.71, 0.18, -0.41, 0.13, -0.23, 0.02, 43.90
270193, 565503564, 570466693, 0.32, 0.18, 3.21, 0.10, 0.28, 0.07, 43.91
270194, 565505548, 570468677, 0.06, 0.09, 0.49, -0.14, 0.71, 0.08, 43.90
270195, 565507562, 570470691, -0.59, -0.05, 2.09, -0.13, 0.73, 0.01, 43.87
270196, 565509546, 570472675, -0.43, -0.46, 0.24, 0.14, 0.10, -0.06, 43.92
270197, 565511560, 570474689, 0.11, -0.07, -0.34, 0.18, -0.40, -0.10, 43.95
270198, 565513575, 570476704, 0.08, 0.23, 1.34, 0.25, -0.76, -0.05, 43.96
270199, 565515559, 570478688, 0.87, 0.45, 0.26, 0.09, -0.16, -0.00, 43.94
270200, 565517573, 570480702, 0.33, 0.23, 2.79, 0.00, 0.32, 0.06, 43.91
270201, 565519557, 570482686, 0.13, -0.05, 0.84, -0.16, 0.68, 0.07, 43.87
270202, 565521571, 570484700, -0.65, -0.29, 2.09, -0.13, 0.63, 0.04, 43.87
270203, 565523555, 570486684, -0.41, -0.64, 0.05, 0.17, 0.12, -0.03, 43.92
270204, 565525569, 570488698, -0.01, 0.12, -0.40, 0.25, -0.35, -0.06, 43.93
270205, 565527553, 570490682, 0.17, 0.41, 1.21, 0.28, -0.69, -0.03, 43.90
270206, 565529568, 570492697, 0.87, 0.66, 0.54, 0.07, -0.19, -0.02, 43.96
270207, 565531551, 570494680, 0.20, 0.16, 2.67, -0.08, 0.27, 0.02, 43.93
270208, 565533566, 570496695, 0.06, -0.13, 1.17, -0.14, 0.67, 0.03, 43.91
270209, 565535550, 570498679, -0.70, -0.57, 1.59, -0.10, 0.59, 0.01, 43.90
270210, 565537564, 570500693, -0.34, -0.79, 0.16, 0.18, 0.11, -0.02, 43.94
270211, 565539548, 570502677, 0.01, 0.34, 0.41, 0.24, -0.42, -0.02, 43.87
270212, 565541562, 570504691, 0.33, 0.48, 0.36, 0.33, -0.68, 0.02, 43.90
270213, 565543546, 570506675, 0.83, 0.93, 1.18, 0.16, -0.20, 0.03, 43.88
270214, 565545561, 570508690, 0.13, 0.18, 2.12, -0.08, 0.40, 0.03, 43.91
270215, 565547575, 570510704, -0.04, -0.09, 1.24, -0.19, 0.80, -0.01, 43.90
270216, 565549559, 570512688, -0.63, -0.87, 1.24, -0.14, 0.50, -0.04, 43.93
270217, 565551573, 570514702, -0.16, -0.91, 0.60, 0.18, -0.12, -0.06, 43.92
270218, 565553557, 570516686, -0.00, 0.28, 0.79, 0.28, -0.58, -0.01, 43.92
270219, 565555571, 570518700, 0.41, 0.58, 0.21, 0.42, -0.54, 0.04, 43.92
270220, 565557555, 570520684, 0.52, 1.05, 1.08, 0.19, 0.00, 0.07, 43.93
270221, 565559570, 570522699, 0.05, 0.37, 2.12, -0.13, 0.59, 0.02, 43.91
270222, 565561553, 570524682, -0.16, -0.24, 0.95, -0.26, 0.74, -0.06, 43.89
270223, 565563568, 570526697, -0.42, -1.10, 1.19, -0.11, 0.17, -0.08, 43.91
270224, 565565552, 570528681, 0.01, -0.80, 1.05, 0.23, -0.45, -0.06, 43.92
270225, 565567566, 570530695, -0.04, 0.15, 0.39, 0.33, -0.58, 0.03, 43.92
270226, 565569550, 570532679, 0.46, 0.67, 0.24, 0.44, -0.18, 0.08, 43.92
270227, 565571564, 570534693, 0.50, 1.27, 1.28, 0.17, 0.22, 0.09, 43.93
270228, 565573548, 570536677, 0.07, 0.30, 1.90, -0.16, 0.55, 0.01, 43.90
270229, 565575563, 570538692, -0.37, -0.39, 1.25, -0.31, 0.49, -0.10, 43.94
270230, 565577546, 570540675, -0.35, -1.20, 0.79, -0.03, 0.01, -0.11, 43.94
270231, 565579561, 570542690, -0.10, -0.79, 1.31, 0.30, -0.52, -0.05, 43.96
270232, 565581575, 570544704, 0.17, 0.21, 0.06, 0.35, -0.49, 0.04, 43.95
270233, 565583559, 570546688, 0.57, 1.00, 0.78, 0.38, -0.03, 0.09, 43.93
270234, 565585573, 570548702, 0.44, 1.12, 0.72, 0.14, 0.26, 0.10, 43.90
270235, 565587557, 570550686, -0.13, 0.20, 2.38, -0.12, 0.46, 0.01, 43.93
270236, 565589572, 570552701, -0.39, -0.55, 1.47, -0.36, 0.38, -0.09, 43.95
270237, 565591555, 570554684, -0.19, -1.26, 0.17, -0.00, 0.02, -0.10, 43.93
270238, 565593570, 570556699, -0.15, -0.58, 1.34, 0.36, -0.56, -0.04, 43.93
270239, 565595554, 570558683, 0.44, 0.36, -0.02, 0.46, -0.52, 0.04, 43.95
270240, 565597568, 570560697, 0.45, 1.22, 1.23, 0.33, -0.07, 0.09, 43.94
270241, 565599552, 570562681, 0.32, 0.89, 0.55, 0.03, 0.36, 0.07, 43.87
270242, 565601566, 570564695, -0.23, 0.13, 2.68, -0.14, 0.58, -0.02, 43.93
270243, 565603550, 570566679, -0.47, -0.78, 1.31, -0.32, 0.39, -0.11, 43.91
270244, 565605565, 570568694, -0.22, -1.29, -0.10, 0.06, -0.05, -0.11, 43.94
270245, 565607548, 570570677, -0.02, -0.43, 1.37, 0.40, -0.78, -0.02, 43.93
270246, 565609563, 570572692, 0.59, 0.51, 0.01, 0.51, -0.63, 0.06, 43.90
270247, 565611547, 570574676, 0.41, 1.37, 1.47, 0.29, -0.05, 0.13, 43.91
270248, 565613561, 570576690, 0.41, 0.91, 0.64, 0.00, 0.59, 0.09, 43.95
270249, 565615575, 570578704, -0.41, 0.06, 2.41, -0.17, 0.73, -0.02, 43.97
270250, 565617559, 570580688, -0.50, -1.03, 1.12, -0.30, 0.29, -0.12, 43.93
270251, 565619574, 570582703, -0.24, -1.31, 0.12, 0.02, -0.26, -0.12, 43.92
270252, 565621557, 570584686, 0.09, -0.48, 1.18, 0.45, -0.90, -0.04, 43.91
270253, 565623572, 570586701, 0.65, 0.47, 0.15, 0.57, -0.58, 0.06, 43.91
270254, 565625556, 570588685, 0.38, 1.45, 1.40, 0.27, 0.02, 0.13, 43.95
270255, 565627570, 570590699, 0.40, 1.07, 1.15, -0.00, 0.67, 0.08, 43.93
270256, 565629554, 570592683, -0.45, -0.05, 1.72, -0.21, 0.73, -0.03, 43.96
270257, 565631568, 570594697, -0.31, -1.03, 1.03, -0.22, 0.18, -0.11, 43.91
270258, 565633552, 570596681, -0.37, -1.15, 0.51, 0.04, -0.43, -0.11, 43.93
270259, 565635566, 570598695, 0.08, -0.46, 1.14, 0.47, -0.85, -0.03, 43.92
270260, 565637550, 570600679, 0.62, 0.53, -0.08, 0.52, -0.42, 0.06, 43.94
270261, 565639565, 570602694, 0.36, 1.17, 1.37, 0.21, 0.07, 0.12, 43.94
270262, 565641549, 570604678, 0.38, 0.98, 1.64, 0.00, 0.60, 0.07, 43.95
270263, 565643563, 570606692, -0.51, -0.15, 1.54, -0.26, 0.62, -0.04, 43.97
270264, 565645547, 570608676, -0.18, -0.86, 1.06, -0.10, 0.14, -0.10, 43.93
270265, 565647561, 570610690, -0.58, -0.91, 0.45, 0.13, -0.48, -0.09, 43.93
270266, 565649576, 570612705, 0.19, -0.18, 1.21, 0.48, -0.74, -0.04, 43.92
270267, 565651559, 570614688, 0.62, 0.67, -0.18, 0.37, -0.36, 0.03, 43.95
270268, 565653574, 570616703, 0.27, 0.65, 1.76, 0.03, 0.48, 0.06, 43.94
270269, 565655558, 570618687, -0.45, -0.43, 1.52, -0.23, 0.59, -0.00, 43.93
270270, 565657572, 570620701, -0.29, -0.88, 0.71, -0.06, 0.21, -0.05, 43.94
270271, 565659556, 570622685, -0.41, -0.80, 0.22, 0.15, -0.47, -0.04, 43.94
270272, 565661570, 570624699, 0.28, 0.10, 2.07, 0.50, -0.76, -0.03, 43.93
270273, 565663554, 570626683, 0.55, 0.75, -0.44, 0.32, -0.39, 0.02, 43.96
270274, 565665568, 570628697, 0.48, 0.98, 1.05, 0.24, 0.10, 0.05, 43.96
270275, 565667552, 570630681, 0.11, 0.50, 1.66, 0.06, 0.46, 0.01, 43.91
270276, 565669567, 570632696, -0.30, -0.49, 1.74, -0.27, 0.52, -0.05, 43.90
270277, 565671551, 570634680, -0.32, -0.84, 0.64, -0.15, 0.10, -0.05, 43.91
270278, 565673565, 570636694, -0.14, -0.89, 0.51, 0.18, -0.49, -0.01, 43.91
270279, 565675549, 570638678, 0.18, 0.08, 1.98, 0.52, -0.69, 0.05, 43.94
270280, 565677563, 570640692, 0.40, 0.81, -0.40, 0.28, -0.24, 0.09, 43.94
270281, 565679547, 570642676, 0.30, 1.06, 1.33, 0.24, 0.29, 0.07, 43.96
270282, 565681561, 570644690, 0.19, 0.47, 1.18, 0.01, 0.45, -0.00, 43.94
270283, 565683576, 570646705, -0.23, -0.40, 1.61, -0.22, 0.32, -0.08, 43.96
270284, 565685560, 570648689, -0.45, -0.76, 1.14, -0.11, -0.14, -0.10, 43.95
270285, 565687574, 570650703, 0.13, -0.76, 0.21, 0.22, -0.44, -0.06, 43.94
270286, 565689558, 570652687, 0.07, -0.01, 1.63, 0.44, -0.54, 0.03, 43.96
270287, 565691572, 570654701, 0.54, 0.75, 0.11, 0.21, -0.09, 0.08, 43.94
270288, 565693556, 570656685, 0.18, 0.89, 1.71, 0.17, 0.34, 0.07, 43.92
270289, 565695570, 570658699, 0.21, 0.27, 0.75, -0.02, 0.39, 0.04, 43.91
270290, 565697554, 570660683, -0.28, -0.35, 1.83, -0.13, 0.20, -0.01, 43.93
270291, 565699569, 570662698, -0.34, -0.66, 1.05, -0.02, -0.16, -0.04, 43.93
270292, 565701553, 570664682, 0.18, -0.45, -0.04, 0.23, -0.23, -0.05, 43.94
270293, 565703567, 570666696, 0.08, 0.19, 1.75, 0.32, -0.44, -0.01, 43.93
270294, 565705551, 570668680, 0.51, 0.58, -0.07, 0.18, -0.13, 0.01, 43.95
270295, 565707565, 570670694, 0.07, 0.69, 2.21, 0.12, 0.25, -0.00, 43.93
270296, 565709549, 570672678, 0.23, 0.02, 0.13, -0.02, 0.38, 0.00, 43.97
270297, 565711563, 570674692, -0.30, -0.31, 1.52, -0.07, 0.19, 0.01, 43.95
270298, 565713547, 570676676, -0.10, -0.60, 1.64, 0.04, -0.18, 0.02, 43.90
270299, 565715562, 570678691, 0.11, -0.22, -0.12, 0.14, -0.14, 0.01, 43.90
270300, 565717545, 570680674, 0.20, 0.32, 2.45, 0.23, -0.31, 0.04, 43.90
270301, 565719560, 570682689, 0.34, 0.43, -0.69, 0.21, 0.03, 0.02, 43.93
270302, 565721574, 570684703, -0.13, 0.60, 2.27, 0.11, 0.28, -0.03, 43.94
270303, 565723558, 570686687, 0.14, 0.00, -0.30, -0.03, 0.34, -0.06, 43.97
270304, 565725572, 570688701, -0.18, -0.33, 1.60, -0.06, 0.07, -0.05, 43.96
270305, 565727556, 570690685, 0.00, -0.58, 1.93, 0.09, -0.30, -0.02, 43.94
270306, 565729571, 570692700, 0.18, -0.13, -0.02, 0.05, -0.13, 0.02, 43.93
270307, 565731555, 570694684, 0.13, 0.27, 2.44, 0.20, -0.16, 0.06, 43.92
270308, 565733569, 570696698, 0.34, 0.48, -0.47, 0.22, 0.23, 0.04, 43.94
270309, 565735553, 570698682, -0.02, 0.54, 1.85, 0.06, 0.32, 0.00, 43.90
270310, 565737567, 570700696, 0.05, 0.06, -0.18, -0.05, 0.20, -0.04, 43.90
270311, 565739551, 570702680, 0.00, -0.26, 1.66, -0.03, -0.05, -0.04, 43.91
270312, 565741565, 570704694, -0.08, -0.66, 1.60, 0.10, -0.27, -0.02, 43.93
270313, 565743549, 570706678, 0.17, -0.11, -0.04, -0.03, -0.02, 0.01, 43.94
270314, 565745564, 570708693, -0.07, 0.27, 3.04, 0.17, -0.02, 0.04, 43.90
270315, 565747547, 570710676, 0.28, 0.43, -0.50, 0.20, 0.31, 0.00, 43.95
270316, 565749562, 570712691, -0.00, 0.55, 1.49, 0.05, 0.24, -0.03, 43.95
270317, 565751546, 570714675, -0.02, 0.17, -0.10, 0.02, 0.01, -0.05, 43.93
270318, 565753560, 570716689, 0.19, -0.24, 1.69, 0.02, -0.12, -0.03, 43.94
270319, 565755574, 570718703, -0.07, -0.68, 1.18, 0.01, -0.16, 0.02, 43.99
270320, 565757558, 570720687, 0.20, -0.18, 0.66, -0.14, 0.12, 0.06, 43.95
270321, 565759573, 570722702, -0.21, 0.13, 2.88, 0.16, 0.14, 0.09, 43.93
270322, 565761556, 570724685, 0.30, 0.42, -0.39, 0.24, 0.38, 0.02, 43.97
270323, 565763571, 570726700, -0.05, 0.53, 0.86, 0.09, 0.14, -0.04, 43.95
270324, 565765555, 570728684, 0.08, 0.31, 0.23, 0.07, -0.20, -0.09, 43.92
270325, 565767569, 570730698, 0.26, -0.05, 1.46, 0.03, -0.21, -0.08, 43.94
270326, 565769553, 570732682, -0.01, -0.60, 1.23, -0.07, -0.09, -0.01, 43.94
270327, 565771598, 570734727, 0.32, -0.28, 1.15, -0.19, 0.23, 0.06, 43.91
270328, 565773551, 570736680, -0.37, -0.23, 2.49, 0.11, 0.30, 0.10, 43.95
270329, 565775566, 570738695, 0.16, 0.27, -0.11, 0.19, 0.45, 0.04, 43.92
270330, 565777549, 570740678, -0.12, 0.50, 0.40, 0.09, 0.10, -0.02, 43.93
270331, 565779564, 570742693, 0.23, 0.55, 0.92, 0.18, -0.39, -0.06, 43.92
270332, 565781548, 570744677, 0.17, 0.12, 0.63, 0.05, -0.31, -0.06, 43.95
270333, 565783562, 570746691, 0.06, -0.29, 1.81, -0.09, -0.02, -0.03, 43.96
270334, 565785546, 570748675, 0.22, -0.37, 0.55, -0.23, 0.35, 0.02, 43.99
270335, 565787560, 570750689, -0.38, -0.49, 2.50, 0.02, 0.36, 0.05, 44.00
270336, 565789575, 570752704, 0.19, 0.02, 0.54, 0.09, 0.34, 0.02, 43.95
270337, 565791558, 570754687, -0.02, 0.44, 0.12, 0.11, -0.02, 0.00, 43.94
270338, 565793573, 570756702, 0.20, 0.56, 1.34, 0.34, -0.45, -0.00, 43.94
270339, 565795557, 570758686, 0.07, 0.35, 0.09, 0.09, -0.16, -0.01, 43.93
270340, 565797571, 570760700, 0.03, 0.06, 1.86, -0.18, 0.19, -0.03, 43.92
270341, 565799555, 570762684, 0.01, -0.36, 0.12, -0.31, 0.37, -0.03, 43.93
270342, 565801569, 570764698, -0.23, -0.69, 3.16, -0.02, 0.17, -0.02, 43.99
270343, 565803553, 570766682, 0.11, -0.23, 0.28, 0.06, 0.03, -0.03, 43.93
270344, 565805568, 570768697, 0.01, 0.20, -0.08, 0.17, -0.11, 0.00, 43.93
270345, 565807551, 570770680, 0.17, 0.64, 1.77, 0.44, -0.32, 0.05, 43.95
270346, 565809566, 570772695, 0.06, 0.52, -0.26, 0.04, 0.07, 0.06, 43.94
270347, 565811550, 570774679, 0.15, 0.40, 2.54, -0.25, 0.24, 0.00, 43.97
270348, 565813564, 570776693, 0.07, -0.45, -0.17, -0.34, 0.18, -0.03, 43.96
270349, 565815548, 570778677, -0.10, -0.75, 3.14, 0.01, -0.05, -0.04, 43.97
270350, 565817562, 570780691, -0.08, -0.34, -0.05, 0.09, -0.06, -0.05, 43.98
270351, 565819546, 570782675, 0.06, 0.25, -0.10, 0.23, 0.04, -0.02, 43.98
270352, 565821560, 570784689, 0.13, 0.51, 0.11, -0.04, 0.04, 0.04, 43.92
270353, 565823575, 570786704, 0.09, 0.31, 3.15, -0.28, 0.04, 0.00, 43.98
270354, 565825559, 570788688, 0.01, -0.69, -0.53, -0.34, 0.14, -0.02, 43.94
270355, 565827573, 570790702, -0.14, -0.68, 2.79, 0.08, 0.02, -0.03, 43.93
270356, 565829557, 570792686, -0.08, -0.20, -0.38, 0.14, -0.08, -0.02, 43.93
270357, 565831571, 570794700, 0.11, 0.38, 0.52, 0.27, -0.05, -0.01, 43.92
270358, 565833555, 570796684, 0.08, 0.87, 1.49, 0.31, -0.23, 0.04, 43.90
270359, 565835570, 570798699, 0.30, 0.34, -0.28, -0.06, 0.03, 0.03, 43.91
270360, 565837553, 570800682, 0.01, 0.15, 3.70, -0.29, -0.01, -0.00, 43.96
270361, 565839568, 570802697, 0.02, -0.88, -0.56, -0.35, 0.23, -0.04, 43.93
270362, 565841552, 570804681, -0.10, -0.64, 2.79, 0.10, 0.03, -0.03, 43.93
270363, 565843566, 570806695, -0.08, -0.25, -1.17, 0.25, -0.19, -0.02, 43.94
270364, 565845550, 570808679, 0.12, 0.66, 1.34, 0.35, -0.22, 0.01, 43.96
270365, 565847564, 570810693, 0.05, 0.93, 0.87, 0.23, -0.19, 0.05, 43.94
270366, 565849548, 570812677, 0.27, 0.46, 0.24, -0.12, 0.22, 0.02, 43.95
270367, 565851562, 570814691, -0.19, -0.05, 3.23, -0.29, 0.05, -0.02, 43.93
270368, 565853546, 570816675, 0.18, -0.92, 0.17, -0.36, 0.13, -0.07, 43.93
270369, 565855561, 570818690, -0.17, -0.94, 2.09, 0.09, -0.21, -0.05, 43.93
270370, 565857575, 570820704, 0.18, -0.21, -0.58, 0.36, -0.34, -0.00, 43.95
270371, 565859559, 570822688, 0.07, 0.73, 1.43, 0.45, -0.20, 0.07, 43.93
270372, 565861573, 570824702, 0.03, 1.04, -0.04, 0.19, 0.02, 0.10, 43.92
270373, 565863557, 570826686, 0.18, 0.67, 1.16, -0.17, 0.34, 0.02, 43.95
270374, 565865571, 570828700, -0.12, -0.13, 2.70, -0.29, -0.03, -0.04, 43.94
270375, 565867555, 570830684, 0.20, -0.85, 0.91, -0.28, -0.04, -0.11, 43.99
270376, 565869570, 570832699, -0.45, -1.13, 1.15, 0.11, -0.27, -0.10, 43.96
270377, 565871554, 570834683, 0.34, -0.06, -0.25, 0.43, -0.29, -0.04, 43.98
270378, 565873568, 570836697, -0.12, 0.58, 1.01, 0.43, -0.27, 0.07, 43.98
270379, 565875552, 570838681, 0.37, 0.99, 0.41, 0.17, -0.07, 0.12, 43.96
270380, 565877566, 570840695, 0.29, 0.68, 1.90, -0.19, 0.25, 0.09, 43.99
270381, 565879550, 570842679, -0.16, -0.28, 1.78, -0.26, 0.08, 0.03, 43.97
270382, 565881564, 570844693, -0.00, -0.68, 1.31, -0.14, 0.08, -0.05, 43.96
270383, 565883548, 570846677, -0.53, -1.01, 0.97, 0.13, -0.17, -0.11, 44.00
270384, 565885563, 570848692, 0.36, -0.06, -0.64, 0.40, -0.25, -0.10, 43.97
270385, 565887546, 570850675, -0.11, 0.62, 0.91, 0.36, -0.48, -0.01, 43.94
270386, 565889561, 570852690, 0.63, 0.83, 1.04, 0.19, -0.30, 0.06, 43.95
270387, 565891575, 570854704, 0.27, 0.51, 2.19, -0.14, 0.09, 0.09, 43.99
270388, 565893559, 570856688, -0.08, -0.42, 1.13, -0.22, 0.28, 0.06, 43.96
270389, 565895573, 570858702, -0.07, -0.65, 0.89, -0.08, 0.35, 0.00, 43.96
270390, 565897557, 570860686, -0.54, -0.81, 1.36, 0.16, -0.11, -0.05, 43.96
270391, 565899572, 570862701, 0.26, 0.09, -0.34, 0.36, -0.36, -0.07, 43.96
270392, 565901556, 570864685, -0.19, 0.72, 1.02, 0.36, -0.60, -0.01, 43.97
270393, 565903570, 570866699, 0.61, 0.78, 1.01, 0.27, -0.32, 0.03, 43.94
270394, 565905554, 570868683, 0.23, 0.39, 1.73, -0.09, 0.07, 0.06, 43.96
270395, 565907568, 570870697, 0.06, -0.53, 1.43, -0.25, 0.32, 0.02, 44.03
270396, 565909552, 570872681, 0.02, -0.71, 0.70, -0.14, 0.30, -0.03, 43.98
270397, 565911597, 570874726, -0.35, -0.78, 1.55, 0.24, -0.26, -0.03, 43.98
270398, 565913550, 570876679, 0.18, 0.22, -0.07, 0.44, -0.40, -0.02, 43.98
270399, 565915565, 570878694, -0.30, 0.76, 0.75, 0.42, -0.35, 0.04, 43.99
270400, 565917548, 570880677, 0.41, 1.09, 0.99, 0.27, -0.07, 0.03, 43.97
270401, 565919563, 570882692, 0.00, 0.19, 0.99, -0.15, 0.07, 0.02, 43.98
270402, 565921547, 570884676, 0.20, -0.42, 2.77, -0.26, 0.07, -0.04, 43.93
270403, 565923561, 570886690, 0.06, -0.95, 0.33, -0.14, 0.01, -0.07, 43.96
270404, 565925575, 570888704, -0.10, -0.87, 1.37, 0.36, -0.33, -0.02, 43.99
270405, 565927559, 570890688, 0.03, 0.29, 0.35, 0.50, -0.32, 0.04, 43.96
270406, 565929574, 570892703, -0.08, 0.77, 0.02, 0.40, -0.11, 0.09, 43.99
270407, 565931558, 570894687, 0.34, 1.11, 1.14, 0.20, 0.04, 0.07, 43.94
270408, 565933572, 570896701, 0.11, 0.33, 1.32, -0.16, -0.04, 0.03, 43.93
270409, 565935556, 570898685, 0.28, -0.36, 3.05, -0.15, -0.09, -0.06, 43.92
270410, 565937570, 570900699, -0.13, -1.11, -0.26, -0.09, 0.03, -0.11, 43.95
270411, 565939554, 570902683, -0.22, -0.72, 1.42, 0.37, -0.09, -0.08, 43.98
270412, 565941568, 570904697, -0.28, 0.14, -0.00, 0.45, -0.27, -0.01, 43.93
270413, 565943552, 570906681, 0.14, 0.69, 0.70, 0.39, -0.23, 0.04, 43.94
270414, 565945567, 570908696, 0.47, 1.11, 1.48, 0.17, -0.22, 0.07, 43.96
270415, 565947550, 570910679, 0.41, 0.18, 0.43, -0.09, -0.12, 0.08, 43.93
270416, 565949565, 570912694, 0.18, -0.28, 3.13, -0.01, -0.01, 0.03, 43.98
270417, 565951549, 570914678, -0.06, -0.94, -0.17, -0.04, 0.21, -0.03, 44.00
270418, 565953563, 570916692, -0.30, -0.49, 1.36, 0.31, 0.10, -0.04, 43.93
270419, 565955547, 570918676, -0.32, 0.03, -0.06, 0.37, -0.27, -0.02, 43.96
270420, 565957561, 570920690, 0.25, 0.65, 1.26, 0.40, -0.32, -0.02, 43.97
270421, 565959576, 570922705, 0.20, 0.93, 1.43, 0.16, -0.35, 0.01, 43.97
270422, 565961560, 570924689, 0.36, 0.15, 0.15, -0.05, -0.00, 0.01, 43.95
270423, 565963574, 570926703, 0.05, -0.27, 2.86, 0.05, 0.09, -0.03, 43.96
270424, 565965558, 570928687, 0.07, -0.83, -0.08, -0.03, 0.14, -0.05, 44.00
270425, 565967572, 570930701, -0.32, -0.44, 1.32, 0.23, -0.05, -0.01, 44.00
270426, 565969556, 570932685, -0.03, 0.14, 0.91, 0.40, -0.34, 0.05, 43.98
270427, 565971570, 570934699, 0.19, 0.47, 0.29, 0.39, -0.17, 0.07, 43.96
270428, 565973554, 570936683, 0.09, 0.99, 1.62, 0.12, -0.15, 0.09, 43.94
270429, 565975569, 570938698, 0.41, 0.17, 0.11, -0.02, 0.10, 0.02, 43.96
270430, 565977552, 570940681, 0.05, -0.33, 2.73, 0.06, -0.00, -0.06, 43.98
270431, 565979567, 570942696, 0.10, -0.83, 0.38, -0.00, -0.02, -0.11, 43.98
270432, 565981551, 570944680, -0.24, -0.35, 1.09, 0.20, -0.09, -0.07, 43.98
270433, 565983565, 570946694, 0.03, 0.09, 1.05, 0.48, -0.23, -0.01, 43.98
270434, 565985549, 570948678, 0.01, 0.94, 1.68, 0.06, -0.09, 0.08, 43.98
270435, 565987563, 570950692, 0.36, 0.23, 0.41, -0.03, 0.06, 0.02, 43.97
270436, 565989547, 570952676, -0.00, -0.56, 2.22, 0.08, -0.09, -0.04, 44.01
270437, 565991561, 570954690, 0.17, -0.83, 0.69, 0.06, -0.08, -0.04, 43.95
270438, 565993545, 570956674, -0.22, -0.25, 0.93, 0.16, -0.05, -0.00, 43.95
270439, 565995560, 570958689, 0.02, 0.16, 1.07, 0.50, -0.06, 0.04, 43.96
270440, 565997574, 570960703, 0.12, 0.76, 0.26, 0.34, 0.09, 0.05, 43.93
270441, 565999558, 570962687, 0.12, 0.86, 1.49, 0.06, -0.09, 0.03, 43.92
270442, 566001572, 570964701, 0.35, 0.11, 0.72, -0.02, -0.04, -0.06, 43.95
270443, 566003556, 570966685, -0.03, -0.77, 1.78, 0.03, -0.13, -0.11, 43.95
270444, 566005571, 570968700, 0.24, -0.80, 0.96, 0.11, -0.08, -0.07, 43.93
270445, 566007554, 570970683, -0.25, -0.34, 0.62, 0.21, -0.03, 0.01, 43.96
270446, 566009569, 570972698, -0.04, 0.43, 1.61, 0.50, 0.04, 0.08, 43.93
270447, 566011553, 570974682, 0.02, 0.95, 0.05, 0.25, 0.17, 0.10, 43.96
270448, 566013567, 570976696, 0.11, 0.98, 1.22, 0.08, -0.03, 0.06, 44.00
270449, 566015551, 570978680, 0.29, 0.10, 1.06, 0.00, -0.09, -0.06, 43.95
270450, 566017565, 570980694, 0.08, -1.00, 1.19, -0.07, -0.11, -0.12, 43.95
270451, 566019549, 570982678, 0.21, -0.91, 1.34, 0.04, -0.10, -0.08, 43.98
270452, 566021563, 570984692, -0.12, -0.54, 0.59, 0.20, -0.06, 0.01, 43.97
270453, 566023547, 570986676, 0.03, 0.43, 2.14, 0.52, 0.06, 0.11, 43.98
270454, 566025562, 570988691, 0.10, 1.17, -0.01, 0.24, 0.22, 0.12, 43.98
270455, 566027546, 570990675, 0.03, 1.06, 0.52, 0.14, 0.11, 0.04, 43.98
270456, 566029560, 570992689, 0.22, 0.43, 1.50, 0.03, -0.10, -0.09, 44.01
270457, 566031574, 570994703, 0.10, -0.95, 0.72, -0.14, -0.11, -0.17, 43.99
270458, 566033558, 570996687, -0.04, -0.97, 1.55, -0.02, -0.14, -0.12, 44.02
270459, 566035573, 570998702, 0.00, -0.78, 0.73, 0.15, -0.06, 0.00, 43.97
270460, 566037556, 571000685, -0.08, 0.13, 2.04, 0.43, 0.08, 0.14, 43.98
270461, 566039571, 571002700, 0.04, 1.11, 0.37, 0.25, 0.26, 0.18, 43.98
270462, 566041555, 571004684, 0.09, 1.03, 0.14, 0.19, 0.21, 0.08, 43.95
270463, 566043569, 571006698, 0.19, 0.58, 1.66, 0.08, -0.17, -0.06, 43.93
270464, 566045553, 571008682, 0.22, -0.67, 0.53, -0.15, -0.17, -0.17, 43.92
270465, 566047567, 571010696, 0.01, -0.88, 1.46, -0.05, -0.17, -0.15, 43.95
270466, 566049551, 571012680, 0.16, -0.80, 0.81, 0.13, 0.01, -0.04, 43.97
270467, 566051565, 571014694, -0.16, 0.12, 2.17, 0.33, 0.12, 0.12, 43.92
270468, 566053549, 571016678, -0.01, 0.90, 0.45, 0.25, 0.29, 0.15, 43.98
270469, 566055564, 571018693, -0.06, 0.82, -0.07, 0.16, 0.30, 0.05, 44.02
270470, 566057548, 571020677, 0.27, 0.50, 1.76, 0.09, -0.16, -0.06, 43.98
270471, 566059562, 571022691, 0.14, -0.49, 0.13, -0.15, -0.25, -0.14, 43.99
270472, 566061546, 571024675, -0.02, -0.82, 1.82, -0.05, -0.22, -0.12, 44.01
270473, 566063560, 571026689, 0.34, -0.41, 1.28, 0.14, 0.07, -0.01, 43.98
270474, 566065575, 571028704, -0.24, 0.03, 1.46, 0.24, 0.19, 0.13, 43.93
270475, 566067558, 571030687, 0.08, 0.81, 0.67, 0.23, 0.30, 0.13, 43.99
270476, 566069573, 571032702, -0.04, 0.69, 0.07, 0.06, 0.24, 0.02, 43.97
270477, 566071557, 571034686, 0.34, 0.40, 1.85, 0.09, -0.20, -0.07, 43.97
270478, 566073571, 571036700, 0.07, -0.41, 0.14, -0.08, -0.28, -0.12, 44.02
270479, 566075555, 571038684, 0.03, -0.86, 1.56, -0.01, -0.10, -0.10, 44.00
270480, 566077569, 571040698, 0.16, -0.13, 1.39, 0.04, 0.22, -0.00, 44.02
270481, 566079553, 571042682, -0.39, -0.03, 1.14, 0.12, 0.25, 0.10, 43.98
270482, 566081567, 571044696, 0.05, 0.79, 1.37, 0.25, 0.20, 0.08, 43.99
270483, 566083551, 571046680, 0.08, 0.50, -0.07, 0.04, 0.06, -0.01, 43.98
270484, 566085566, 571048695, 0.44, 0.29, 1.20, 0.11, -0.27, -0.07, 43.96
270485, 566087550, 571050679, 0.11, -0.36, 0.39, -0.06, -0.32, -0.08, 43.98
270486, 566089564, 571052693, 0.26, -0.71, 1.99, -0.02, 0.03, -0.04, 44.00
270487, 566091548, 571054677, 0.01, -0.03, 0.99, -0.08, 0.34, 0.05, 43.97
270488, 566093562, 571056691, -0.36, -0.08, 1.13, 0.09, 0.32, 0.12, 43.99
270489, 566095546, 571058675, -0.18, 0.58, 1.64, 0.28, 0.15, 0.07, 43.96
270490, 566097560, 571060689, 0.11, 0.47, -0.25, 0.01, -0.01, -0.04, 43.97
270491, 566099575, 571062704, 0.25, 0.20, 0.78, 0.11, -0.26, -0.11, 43.97
270492, 566101559, 571064688, 0.37, -0.09, 0.79, -0.03, -0.35, -0.11, 44.02
270493, 566103573, 571066702, 0.26, -0.59, 2.18, -0.02, 0.02, -0.05, 44.01
270494, 566105557, 571068686, -0.08, 0.02, 1.20, -0.19, 0.35, 0.06, 43.98
270495, 566107571, 571070700, -0.36, -0.34, 0.49, 0.09, 0.46, 0.12, 43.99
270496, 566109555, 571072684, -0.30, 0.41, 1.80, 0.26, 0.17, 0.08, 44.01
270497, 566111661, 571074790, 0.17, 0.41, -0.12, -0.02, -0.08, -0.02, 43.99
270498, 566113553, 571076682, 0.13, 0.28, 0.77, 0.12, -0.37, -0.09, 43.97
270499, 566115568, 571078697, 0.63, 0.17, 0.84, 0.03, -0.39, -0.08, 44.01
270500, 566117551, 571080680, 0.21, -0.36, 2.23, -0.02, 0.06, -0.02, 43.98
270501, 566119566, 571082695, -0.16, 0.08, 1.15, -0.27, 0.47, 0.05, 43.99
270502, 566121550, 571084679, -0.48, -0.46, 0.27, 0.02, 0.65, 0.07, 43.98
270503, 566123564, 571086693, -0.26, 0.19, 2.09, 0.18, 0.09, 0.02, 43.98
270504, 566125548, 571088677, 0.31, 0.15, -0.37, 0.02, -0.33, -0.06, 43.96
270505, 566127562, 571090691, 0.13, 0.16, 1.22, 0.15, -0.56, -0.07, 44.01
270506, 566129546, 571092675, 0.80, 0.39, 0.94, 0.09, -0.30, -0.03, 44.00
270507, 566131561, 571094690, -0.02, -0.10, 1.58, -0.04, 0.28, 0.04, 44.02
270508, 566133575, 571096704, -0.12, 0.29, 1.66, -0.29, 0.60, 0.08, 43.99
270509, 566135559, 571098688, -0.54, -0.52, 0.02, -0.08, 0.64, 0.04, 43.99
270510, 566137573, 571100702, -0.23, -0.02, 1.87, 0.10, -0.14, -0.03, 43.99
270511, 566139557, 571102686, 0.29, -0.23, -0.13, 0.08, -0.58, -0.08, 43.95
270512, 566141571, 571104700, 0.19, 0.06, 1.28, 0.17, -0.58, -0.05, 43.97
270513, 566143555, 571106684, 0.80, 0.48, 0.72, 0.13, -0.06, 0.01, 44.00
270514, 566145570, 571108699, -0.08, 0.30, 1.74, -0.06, 0.43, 0.07, 43.95
270515, 566147553, 571110682, -0.11, 0.37, 1.72, -0.25, 0.56, 0.06, 43.97
270516, 566149568, 571112697, -0.18, -0.21, 2.01, 0.03, -0.31, -0.09, 43.96
270517, 566151552, 571114681, 0.20, -0.51, -0.60, 0.12, -0.64, -0.10, 43.98
270518, 566153566, 571116695, 0.23, 0.02, 1.60, 0.18, -0.54, -0.03, 44.00
270519, 566155550, 571118679, 0.73, 0.65, 0.74, 0.11, 0.06, 0.07, 43.91
270520, 566157564, 571120693, -0.13, 0.41, 1.51, -0.08, 0.48, 0.12, 43.94
270521, 566159548, 571122677, -0.22, 0.42, 1.97, -0.17, 0.55, 0.08, 43.98
270522, 566161563, 571124692, -0.55, -0.40, 0.11, -0.19, 0.36, -0.04, 43.98
270523, 566163546, 571126675, -0.01, -0.45, 1.40, 0.01, -0.48, -0.13, 44.01
270524, 566165561, 571128690, 0.38, -0.60, -0.08, 0.17, -0.79, -0.13, 43.98
270525, 566167575, 571130704, 0.41, 0.03, 1.71, 0.20, -0.57, -0.02, 43.98
270526, 566169559, 571132688, 0.52, 0.75, 0.26, 0.10, 0.17, 0.11, 43.98
270527, 566171573, 571134702, -0.13, 0.56, 2.01, -0.09, 0.69, 0.15, 43.97
270528, 566173557, 571136686, -0.42, 0.38, 1.65, -0.16, 0.69, 0.09, 43.97
270529, 566175572, 571138701, -0.46, -0.31, 0.02, -0.26, 0.24, -0.06, 43.92
270530, 566177555, 571140684, -0.03, -0.65, 1.59, 0.00, -0.74, -0.18, 43.96
270531, 566179570, 571142699, 0.56, -0.55, 0.27, 0.22, -0.99, -0.15, 43.99
270532, 566181554, 571144683, 0.54, -0.10, 1.15, 0.24, -0.55, -0.01, 43.97
270533, 566183568, 571146697, 0.47, 0.74, 0.09, 0.10, 0.32, 0.15, 43.99
270534, 566185552, 571148681, -0.18, 0.81, 2.81, -0.10, 0.89, 0.18, 43.98
270535, 566187566, 571150695, -0.65, 0.21, 0.62, -0.20, 0.77, 0.09, 44.01
270536, 566189550, 571152679, -0.48, -0.29, 0.62, -0.26, 0.07, -0.08, 43.99
270537, 566191565, 571154694, 0.02, -0.75, 1.78, 0.05, -0.96, -0.20, 43.98
270538, 566193548, 571156677, 0.81, -0.48, 0.25, 0.27, -1.05, -0.17, 43.99
270539, 566195563, 571158692, 0.51, 0.06, 0.78, 0.23, -0.46, 0.00, 44.01
270540, 566197547, 571160676, 0.45, 0.68, 0.18, 0.12, 0.41, 0.16, 44.00
270541, 566199561, 571162690, -0.29, 1.06, 3.55, -0.10, 0.96, 0.19, 43.98
270542, 566201575, 571164704, -0.77, -0.11, -0.41, -0.28, 0.84, 0.08, 43.98
270543, 566203559, 571166688, -0.45, -0.52, 0.79, -0.24, 0.02, -0.09, 44.00
270544, 566205574, 571168703, -0.18, -0.91, 2.31, 0.08, -1.05, -0.20, 44.02
270545, 566207557, 571170686, 0.83, -0.38, -0.19, 0.31, -1.05, -0.17, 43.98
270546, 566209572, 571172701, 0.55, 0.44, 1.01, 0.27, -0.53, 0.01, 43.94
270547, 566211556, 571174685, 0.83, 0.84, 0.10, 0.17, 0.35, 0.15, 43.99
270548, 566213570, 571176699, -0.40, 1.02, 3.11, -0.10, 0.90, 0.18, 43.97
270549, 566215554, 571178683, -0.70, -0.10, 0.33, -0.35, 0.90, 0.07, 43.98
270550, 566217568, 571180697, -0.37, -0.65, 0.60, -0.27, 0.14, -0.09, 43.96
270551, 566219552, 571182681, -0.21, -1.16, 1.97, 0.12, -1.08, -0.18, 44.01
270552, 566221566, 571184695, 0.88, -0.52, -0.42, 0.34, -1.09, -0.14, 43.99
270553, 566223550, 571186679, 0.40, 0.67, 1.83, 0.30, -0.54, 0.04, 43.99
270554, 566225565, 571188694, 0.72, 0.92, -0.03, 0.22, 0.45, 0.15, 44.00
270555, 566227549, 571190678, -0.65, 1.01, 2.53, -0.07, 0.94, 0.16, 43.97
270556, 566229563, 571192692, -0.55, -0.03, 1.02, -0.38, 0.78, 0.01, 43.98
270557, 566231547, 571194676, -0.37, -0.77, 0.06, -0.31, -0.06, -0.15, 44.01
270558, 566233561, 571196690, -0.04, -1.11, 2.41, 0.21, -1.21, -0.19, 44.01
270559, 566235576, 571198705, 0.82, -0.36, -0.40, 0.36, -1.03, -0.11, 43.99
270560, 566237559, 571200688, 0.27, 0.60, 1.40, 0.32, -0.37, 0.07, 44.00
270561, 566239574, 571202703, 0.61, 1.04, 0.03, 0.19, 0.60, 0.17, 43.96
270562, 566241558, 571204687, -0.56, 0.75, 2.39, -0.13, 0.89, 0.16, 43.96
270563, 566243572, 571206701, -0.18, -0.15, 1.65, -0.34, 0.53, -0.00, 43.98
270564, 566245556, 571208685, -0.55, -1.05, -0.63, -0.30, -0.27, -0.15, 44.01
270565, 566247570, 571210699, 0.22, -0.85, 3.06, 0.30, -1.17, -0.17, 43.98
270566, 566249554, 571212683, 0.45, -0.20, -0.97, 0.39, -0.80, -0.09, 43.99
270567, 566251568, 571214697, 0.22, 0.96, 1.29, 0.35, -0.12, 0.04, 43.98
270568, 566253552, 571216681, 0.44, 1.12, 0.23, 0.16, 0.59, 0.09, 44.02
270569, 566255567, 571218696, -0.46, 0.44, 2.06, -0.21, 0.57, 0.06, 44.01
270570, 566257551, 571220680, -0.00, -0.49, 2.02, -0.33, 0.09, -0.05, 43.99
270571, 566259565, 571222694, -0.37, -1.19, -0.27, -0.25, -0.43, -0.11, 43.99
270572, 566261549, 571224678, 0.28, -0.81, 2.86, 0.42, -0.90, -0.07, 43.99
270573, 566263563, 571226692, 0.19, -0.01, -1.65, 0.41, -0.44, 0.02, 44.00
270574, 566265547, 571228676, 0.18, 1.17, 1.68, 0.32, 0.03, 0.10, 43.98
270575, 566267561, 571230690, 0.40, 1.40, 0.88, 0.06, 0.46, 0.08, 43.97
270576, 566269576, 571232705, -0.41, 0.30, 1.15, -0.23, 0.35, -0.01, 44.00
270577, 566271560, 571234689, 0.03, -0.62, 2.29, -0.25, -0.16, -0.14, 43.98
270578, 566273574, 571236703, -0.23, -1.36, 0.07, -0.21, -0.52, -0.17, 43.99
270579, 566275558, 571238687, 0.24, -0.92, 2.30, 0.38, -0.77, -0.08, 43.93
270580, 566277572, 571240701, 0.24, 0.14, -1.43, 0.36, -0.29, 0.05, 43.98
270581, 566279556, 571242685, 0.31, 1.19, 2.03, 0.35, 0.09, 0.15, 43.96
270582, 566281570, 571244699, 0.19, 1.47, 0.71, 0.08, 0.37, 0.15, 43.96
270583, 566283554, 571246683, -0.43, 0.30, 0.82, -0.22, 0.32, 0.04, 43.96
270584, 566285569, 571248698, 0.06, -0.53, 2.50, -0.19, -0.18, -0.12, 43.98
270585, 566287553, 571250682, -0.12, -1.28, 0.26, -0.23, -0.53, -0.18, 43.97
270586, 566289567, 571252696, 0.16, -1.12, 1.74, 0.30, -0.72, -0.11, 43.97
270587, 566291551, 571254680, 0.22, 0.25, -0.58, 0.34, -0.30, 0.02, 43.97
270588, 566293565, 571256694, 0.27, 1.04, 1.81, 0.37, 0.09, 0.12, 43.97
270589, 566295549, 571258678, -0.01, 1.47, 0.67, 0.13, 0.36, 0.14, 44.01
270590, 566297563, 571260692, -0.31, 0.29, 0.43, -0.21, 0.34, 0.03, 43.99
270591, 566299547, 571262676, 0.06, -0.45, 2.50, -0.16, -0.25, -0.12, 44.01
270592, 566301562, 571264691, 0.10, -1.25, 0.47, -0.19, -0.68, -0.15, 44.06
270593, 566303545, 571266674, 0.33, -1.10, 1.96, 0.26, -0.69, -0.06, 44.04
270594, 566305560, 571268689, 0.27, 0.34, -0.49, 0.34, -0.16, 0.06, 43.99
270595, 566307574, 571270703, 0.15, 1.06, 1.01, 0.39, 0.29, 0.14, 44.03
270596, 566309558, 571272687, -0.27, 1.42, 1.01, 0.11, 0.40, 0.13, 43.98
270597, 566311572, 571274701, -0.15, 0.34, 1.21, -0.25, 0.29, -0.02, 44.03
270598, 566313556, 571276685, 0.26, -1.34, 0.91, -0.11, -0.79, -0.17, 43.98
270599, 566315571, 571278700, 0.25, -0.99, 1.79, 0.29, -0.65, -0.05, 44.00
270600, 566317555, 571280684, 0.32, 0.54, -0.12, 0.37, -0.04, 0.08, 44.01
270601, 566319569, 571282698, 0.20, 1.18, 0.46, 0.33, 0.48, 0.16, 43.97
270602, 566321553, 571284682, -0.29, 1.28, 1.04, 0.10, 0.39, 0.14, 43.95
270603, 566323567, 571286696, 0.07, 0.40, 1.43, -0.23, 0.16, -0.02, 44.00
270604, 566325551, 571288680, -0.07, -1.02, 1.48, -0.24, -0.43, -0.14, 44.01
270605, 566327565, 571290694, 0.40, -1.41, 1.24, -0.07, -0.72, -0.12, 43.99
270606, 566329549, 571292678, -0.09, -0.85, 1.07, 0.29, -0.41, -0.01, 44.00
270607, 566331564, 571294693, 0.31, 0.76, 0.52, 0.46, 0.18, 0.09, 44.02
270608, 566333547, 571296676, -0.03, 1.32, 0.33, 0.25, 0.56, 0.11, 44.00
270609, 566335562, 571298691, -0.27, 1.23, 1.00, 0.03, 0.26, 0.05, 44.05
270610, 566337546, 571300675, 0.14, 0.30, 1.29, -0.20, -0.13, -0.09, 43.99
270611, 566339560, 571302689, 0.07, -1.29, 1.32, -0.22, -0.51, -0.16, 44.01
270612, 566341574, 571304703, 0.45, -1.22, 2.04, -0.01, -0.58, -0.08, 44.02
270613, 566343558, 571306687, -0.12, -0.74, -0.00, 0.19, -0.16, 0.06, 43.99
270614, 566345573, 571308702, 0.43, 0.59, 1.64, 0.47, 0.25, 0.16, 44.03
270615, 566347556, 571310685, -0.06, 1.47, -0.06, 0.20, 0.47, 0.17, 44.00
270616, 566349571, 571312700, -0.18, 1.25, 1.17, 0.06, 0.25, 0.06, 44.01
270617, 566351555, 571314684, -0.07, 0.15, 0.67, -0.12, -0.07, -0.10, 44.00
270618, 566353569, 571316698, 0.12, -1.19, 1.68, -0.22, -0.35, -0.21, 43.94
270619, 566355553, 571318682, 0.28, -1.34, 1.84, -0.09, -0.49, -0.14, 43.98
270620, 566357567, 571320696, 0.08, -0.83, -0.16, 0.12, -0.16, 0.01, 44.04
270621, 566359551, 571322680, 0.30, 0.45, 2.18, 0.55, 0.14, 0.15, 43.95
270622, 566361566, 571324695, -0.03, 1.55, 0.08, 0.31, 0.40, 0.19, 43.98
270623, 566363549, 571326678, -0.13, 1.34, 0.43, 0.10, 0.40, 0.09, 43.98
270624, 566365564, 571328693, -0.01, 0.35, 0.91, -0.12, -0.00, -0.06, 44.00
270625, 566367548, 571330677, 0.35, -1.02, 1.85, -0.28, -0.30, -0.17, 44.01
270626, 566369562, 571332691, 0.03, -1.47, 1.25, -0.17, -0.45, -0.12, 44.01
270627, 566371546, 571334675, 0.41, -0.90, 0.61, 0.15, -0.12, 0.01, 43.98
270628, 566373560, 571336689, 0.02, 0.15, 1.80, 0.52, 0.18, 0.14, 44.03
270629, 566375575, 571338704, -0.12, 1.40, 0.21, 0.32, 0.49, 0.17, 44.01
270630, 566377558, 571340687, -0.16, 1.31, 0.44, 0.09, 0.50, 0.05, 44.04
270631, 566379573, 571342702, 0.08, 0.50, 0.99, -0.05, -0.09, -0.09, 43.98
270632, 566381557, 571344686, 0.37, -0.66, 1.74, -0.17, -0.47, -0.17, 43.97
270633, 566383571, 571346700, 0.00, -1.28, 1.14, -0.12, -0.43, -0.11, 44.00
270634, 566385555, 571348684, 0.51, -0.70, 0.67, 0.15, 0.14, -0.00, 43.99
270635, 566387569, 571350698, -0.17, 0.12, 1.24, 0.31, 0.39, 0.13, 44.04
270636, 566389553, 571352682, -0.02, 0.93, 1.11, 0.24, 0.42, 0.16, 44.03
270637, 566391568, 571354697, -0.19, 0.90, 0.75, 0.06, 0.35, 0.07, 44.06
270638, 566393551, 571356680, 0.19, 0.27, 0.84, 0.04, -0.08, -0.05, 44.03
270639, 566395566, 571358695, 0.23, -0.49, 0.97, -0.00, -0.34, -0.10, 44.02
270640, 566397550, 571360679, -0.05, -0.90, 1.33, -0.02, -0.27, -0.09, 43.98
270641, 566399564, 571362693, 0.50, -0.23, 0.65, 0.09, 0.22, -0.04, 44.01
270642, 566401548, 571364677, -0.11, 0.17, 1.14, 0.14, 0.31, 0.06, 43.99
270643, 566403593, 571366722, 0.04, 0.82, 1.90, 0.27, 0.24, 0.09, 44.00
270644, 566405546, 571368675, -0.15, 0.56, 0.35, 0.10, 0.27, 0.03, 44.00
270645, 566407560, 571370689, 0.14, 0.09, 0.96, 0.05, 0.08, -0.03, 44.01
270646, 566409575, 571372704, 0.05, -0.47, 0.70, -0.02, -0.13, -0.04, 44.01
270647, 566411559, 571374688, 0.06, -0.77, 1.26, -0.00, -0.10, -0.03, 43.97
270648, 566413573, 571376702, 0.27, -0.20, 1.11, 0.08, 0.16, 0.01, 44.03
270649, 566415557, 571378686, 0.04, 0.25, 0.65, 0.12, 0.23, 0.07, 44.00
270650, 566417571, 571380700, -0.19, 0.71, 2.08, 0.35, 0.19, 0.07, 44.00
270651, 566419555, 571382684, -0.02, 0.57, 0.29, 0.12, 0.32, -0.01, 44.03
270652, 566421570, 571384699, 0.27, 0.22, 0.93, -0.00, 0.17, -0.09, 44.03
270653, 566423553, 571386682, 0.21, -0.28, 0.73, -0.04, -0.22, -0.08, 44.00
270654, 566425568, 571388697, 0.23, -0.72, 1.37, 0.05, -0.19, -0.04, 44.03
270655, 566427552, 571390681, -0.00, -0.32, 1.45, 0.07, 0.18, 0.04, 43.99
270656, 566429566, 571392695, -0.05, -0.06, -0.01, 0.06, 0.53, 0.10, 43.99
270657, 566431550, 571394679, -0.37, 0.48, 2.27, 0.28, 0.40, 0.09, 44.03
270658, 566433564, 571396693, 0.12, 0.47, 0.49, 0.13, 0.19, 0.00, 44.03
270659, 566435548, 571398677, 0.27, 0.50, 0.78, 0.07, -0.11, -0.08, 44.04
270660, 566437562, 571400691, 0.31, -0.02, 0.71, 0.09, -0.38, -0.09, 44.02
270661, 566439546, 571402675, 0.34, -0.47, 0.94, 0.09, -0.06, -0.05, 43.97
270662, 566441561, 571404690, -0.11, -0.21, 2.04, -0.07, 0.30, 0.02, 44.01
270663, 566443575, 571406704, -0.04, -0.23, -0.10, -0.11, 0.70, 0.06, 44.01
270664, 566445559, 571408688, -0.42, 0.04, 2.59, 0.23, 0.41, 0.07, 43.98
270665, 566447573, 571410702, 0.10, 0.08, 0.22, 0.23, 0.05, 0.02, 44.01
270666, 566449557, 571412686, 0.07, 0.48, 0.76, 0.14, -0.25, -0.03, 44.01
270667, 566451571, 571414700, 0.41, 0.30, 0.67, 0.17, -0.36, -0.04, 44.01
270668, 566453555, 571416684, 0.37, -0.03, 0.72, 0.11, 0.10, -0.04, 44.01
270669, 566455570, 571418699, -0.01, 0.06, 2.20, -0.09, 0.35, 0.00, 44.04
270670, 566457554, 571420683, -0.05, -0.17, -0.09, -0.17, 0.64, 0.01, 43.98
270671, 566459568, 571422697, -0.50, -0.34, 2.49, 0.11, 0.33, 0.01, 43.96
270672, 566461552, 571424681, 0.10, -0.26, 0.28, 0.23, 0.02, -0.00, 43.99
270673, 566463566, 571426695, -0.01, 0.30, 0.74, 0.15, -0.24, -0.01, 44.00
270674, 566465550, 571428679, 0.45, 0.30, 0.97, 0.27, -0.32, 0.01, 44.01
270675, 566467564, 571430693, 0.39, 0.36, 0.43, 0.10, 0.14, 0.02, 44.02
270676, 566469548, 571432677, 0.06, 0.12, 2.26, -0.09, 0.33, 0.04, 44.07
270677, 566471563, 571434692, -0.20, -0.01, 0.05, -0.15, 0.62, 0.01, 44.04
270678, 566473546, 571436675, -0.44, -0.47, 2.49, 0.06, 0.37, -0.02, 44.01
270679, 566475561, 571438690, 0.10, -0.36, -0.16, 0.20, 0.01, -0.06, 44.00
270680, 566477575, 571440704, 0.57, 0.26, 1.15, 0.32, -0.43, 0.01, 44.02
270681, 566479559, 571442688, 0.41, 0.54, 0.46, 0.07, 0.18, 0.05, 44.02
270682, 566481573, 571444702, -0.05, 0.18, 1.65, -0.08, 0.49, 0.06, 44.02
270683, 566483557, 571446686, -0.26, 0.12, 0.50, -0.16, 0.68, 0.02, 44.05
270684, 566485572, 571448701, -0.47, -0.46, 2.62, 0.01, 0.30, -0.04, 44.00
270685, 566487556, 571450685, -0.00, -0.48, -0.51, 0.17, -0.12, -0.08, 44.02
270686, 566489570, 571452699, 0.11, -0.02, 1.30, 0.23, -0.53, -0.05, 44.03
270687, 566491554, 571454683, 0.63, 0.17, 0.99, 0.38, -0.45, 0.03, 44.04
270688, 566493568, 571456697, 0.33, 0.67, 0.53, 0.01, 0.27, 0.07, 44.06
270689, 566495552, 571458681, -0.10, 0.30, 1.72, -0.11, 0.65, 0.07, 44.01
270690, 566497566, 571460695, -0.24, 0.18, 0.37, -0.11, 0.69, 0.01, 44.03
270691, 566499550, 571462679, -0.49, -0.49, 2.83, 0.05, 0.13, -0.07, 44.02
270692, 566501565, 571464694, 0.02, -0.48, -0.59, 0.13, -0.28, -0.13, 44.02
270693, 566503548, 571466677, 0.22, -0.12, 1.30, 0.23, -0.59, -0.07, 44.02
270694, 566505563, 571468692, 0.52, 0.10, 0.35, 0.37, -0.35, 0.04, 44.02
270695, 566507547, 571470676, 0.29, 0.78, 1.00, 0.01, 0.31, 0.11, 43.98
270696, 566509561, 571472690, -0.19, 0.31, 2.14, -0.10, 0.69, 0.09, 44.02
270697, 566511575, 571474704, -0.37, 0.21, 0.10, -0.12, 0.66, 0.01, 43.99
270698, 566513559, 571476688, -0.47, -0.54, 2.84, 0.10, -0.01, -0.08, 44.00
270699, 566515574, 571478703, 0.24, -0.47, -0.46, 0.12, -0.45, -0.14, 43.98
270700, 566517558, 571480687, 0.45, -0.18, 1.38, 0.23, -0.68, -0.06, 43.98
270701, 566519572, 571482701, 0.49, 0.22, -0.16, 0.35, -0.33, 0.05, 44.03
270702, 566521556, 571484685, 0.27, 0.62, 1.38, 0.05, 0.35, 0.13, 43.99
270703, 566523570, 571486699, -0.29, 0.34, 1.97, -0.10, 0.78, 0.10, 44.02
270704, 566525554, 571488683, -0.37, -0.01, -0.07, -0.22, 0.72, 0.00, 44.02
270705, 566527568, 571490697, -0.35, -0.45, 2.86, 0.11, -0.12, -0.09, 44.04
270706, 566529552, 571492681, 0.11, -0.40, -0.20, 0.18, -0.65, -0.15, 44.02
270707, 566531567, 571494696, 0.39, -0.14, 0.99, 0.33, -0.69, -0.07, 43.98
270708, 566533550, 571496679, 0.42, 0.48, 0.31, 0.30, -0.24, 0.04, 43.96
270709, 566535565, 571498694, 0.33, 0.42, 0.99, -0.02, 0.39, 0.12, 44.02
270710, 566537549, 571500678, -0.27, 0.24, 2.00, -0.16, 0.71, 0.11, 43.98
270711, 566539563, 571502692, -0.26, -0.28, 0.28, -0.25, 0.61, 0.02, 43.99
270712, 566541547, 571504676, -0.23, -0.42, 2.74, 0.20, -0.17, -0.05, 44.00
270713, 566543561, 571506690, 0.13, -0.24, -0.06, 0.27, -0.70, -0.10, 44.02
270714, 566545576, 571508705, 0.43, 0.11, 0.56, 0.33, -0.59, -0.06, 44.03
270715, 566547560, 571510689, 0.29, 0.67, 0.53, 0.22, -0.14, 0.03, 44.01
270716, 566549574, 571512703, 0.29, 0.29, 0.73, -0.04, 0.45, 0.07, 43.99
270717, 566551558, 571514687, -0.45, 0.09, 2.27, -0.17, 0.66, 0.06, 43.97
270718, 566553572, 571516701, -0.16, -0.48, 0.71, -0.26, 0.50, -0.01, 43.98
270719, 566555556, 571518685, -0.35, -0.61, 2.08, 0.20, -0.23, -0.06, 44.03
270720, 566557570, 571520699, 0.13, -0.14, 0.34, 0.36, -0.76, -0.06, 44.00
270721, 566559554, 571522683, 0.45, 0.38, 0.09, 0.37, -0.56, -0.01, 44.01
270722, 566561569, 571524698, 0.46, 0.89, 1.03, 0.17, -0.11, 0.06, 44.05
270723, 566563552, 571526681, 0.27, 0.36, 0.42, -0.09, 0.51, 0.08, 44.04
270724, 566565567, 571528696, -0.46, 0.05, 2.59, -0.20, 0.63, 0.05, 44.00
270725, 566567551, 571530680, -0.05, -0.54, 1.02, -0.24, 0.37, -0.02, 44.04
270726, 566569565, 571532694, -0.48, -0.93, 0.90, 0.19, -0.28, -0.08, 44.03
270727, 566571549, 571534678, 0.25, -0.05, 1.73, 0.42, -0.77, -0.07, 44.04
270728, 566573563, 571536692, 0.46, 0.39, -0.68, 0.36, -0.44, -0.01, 43.98
270729, 566575547, 571538676, 0.41, 0.95, 1.19, 0.12, -0.00, 0.05, 44.00
270730, 566577561, 571540690, 0.17, 0.47, 0.48, -0.09, 0.53, 0.07, 44.07
270731, 566579545, 571542674, -0.35, -0.01, 2.83, -0.16, 0.49, 0.03, 44.03
270732, 566581560, 571544689, -0.11, -0.64, 0.26, -0.16, 0.20, -0.02, 44.01
270733, 566583574, 571546703, -0.35, -0.87, 1.39, 0.17, -0.30, -0.06, 43.98
270734, 566585558, 571548687, 0.22, -0.13, 1.59, 0.41, -0.68, -0.04, 44.00
270735, 566587572, 571550701, 0.33, 0.43, -0.92, 0.29, -0.28, 0.01, 44.07
270736, 566589556, 571552685, 0.36, 1.03, 1.67, 0.14, -0.01, 0.05, 44.02
270737, 566591571, 571554700, 0.16, 0.38, 0.65, -0.06, 0.43, 0.04, 44.03
270738, 566593554, 571556683, -0.32, -0.18, 2.09, -0.17, 0.40, 0.00, 44.00
270739, 566595569, 571558698, -0.13, -0.76, 0.25, -0.10, 0.09, -0.04, 44.03
270740, 566597553, 571560682, -0.12, -0.69, 2.04, 0.19, -0.39, -0.06, 44.08
270741, 566599567, 571562696, 0.26, -0.16, 0.97, 0.40, -0.61, -0.02, 44.06
270742, 566601551, 571564680, 0.32, 0.66, -0.67, 0.27, -0.13, 0.03, 44.06
270743, 566603565, 571566694, 0.18, 1.11, 1.84, 0.19, 0.06, 0.06, 44.05
270744, 566605549, 571568678, 0.04, 0.45, 0.46, -0.07, 0.43, 0.02, 44.01
270745, 566607563, 571570692, -0.40, -0.23, 2.33, -0.27, 0.33, -0.04, 44.04
270746, 566609547, 571572676, -0.01, -0.87, 0.44, -0.07, -0.06, -0.08, 44.06
270747, 566611562, 571574691, -0.09, -0.87, 2.01, 0.24, -0.56, -0.05, 44.05
270748, 566613546, 571576675, 0.27, -0.29, 0.51, 0.40, -0.57, 0.03, 44.05
270749, 566615560, 571578689, 0.32, 0.80, -0.50, 0.22, 0.01, 0.07, 44.08
270750, 566617574, 571580703, 0.09, 1.02, 1.63, 0.20, 0.19, 0.09, 44.06
270751, 566619558, 571582687, 0.08, 0.74, 0.95, -0.04, 0.43, 0.03, 44.02
270752, 566621573, 571584702, -0.33, -0.14, 2.47, -0.25, 0.21, -0.07, 44.03
270753, 566623556, 571586685, 0.11, -0.91, -0.27, -0.02, -0.18, -0.13, 44.04
270754, 566625571, 571588700, -0.20, -0.91, 2.10, 0.24, -0.65, -0.09, 43.98
270755, 566627555, 571590684, 0.39, -0.29, 0.69, 0.35, -0.49, 0.00, 44.02
270756, 566629569, 571592698, 0.33, 0.67, 0.11, 0.13, 0.09, 0.07, 44.01
270757, 566631553, 571594682, -0.03, 0.85, 1.11, 0.16, 0.29, 0.12, 44.03
270758, 566633567, 571596696, -0.01, 0.79, 1.11, 0.06, 0.41, 0.07, 44.05
270759, 566635551, 571598680, -0.36, 0.01, 2.45, -0.11, 0.11, -0.04, 44.04
270760, 566637565, 571600694, 0.07, -0.85, -0.74, -0.02, -0.22, -0.14, 44.04
270761, 566639549, 571602678, 0.01, -0.72, 2.30, 0.15, -0.72, -0.10, 44.05
270762, 566641564, 571604693, 0.38, 0.59, 0.55, 0.15, 0.04, 0.08, 44.03
270763, 566643578, 571606707, -0.06, 0.68, 0.81, 0.16, 0.45, 0.14, 43.99
270764, 566645562, 571608691, -0.05, 0.68, 0.90, 0.06, 0.56, 0.08, 44.01
270765, 566647546, 571610675, -0.39, -0.04, 2.57, -0.07, 0.08, -0.04, 44.03
270766, 566649560, 571612689, 0.12, -0.73, -0.27, -0.06, -0.33, -0.15, 44.03
270767, 566651575, 571614704, 0.02, -0.71, 2.09, 0.15, -0.83, -0.11, 44.00
270768, 566653558, 571616687, 0.29, -0.35, 0.25, 0.35, -0.60, -0.02, 44.01
270769, 566655573, 571618702, 0.34, 0.75, 0.60, 0.20, 0.09, 0.07, 44.01
270770, 566657557, 571620686, -0.06, 0.75, 0.89, 0.11, 0.54, 0.12, 44.05
270771, 566659571, 571622700, -0.11, 0.71, 0.70, -0.02, 0.56, 0.05, 44.03
270772, 566661555, 571624684, -0.33, -0.16, 2.63, -0.02, -0.07, -0.06, 44.04
270773, 566663569, 571626698, 0.27, -0.81, 0.45, -0.05, -0.53, -0.14, 44.03
270774, 566665553, 571628682, 0.04, -0.99, 1.39, 0.15, -0.82, -0.07, 43.97
270775, 566667567, 571630696, 0.36, -0.20, 0.79, 0.34, -0.45, 0.04, 44.01
270776, 566669551, 571632680, 0.26, 0.69, 0.12, 0.23, 0.24, 0.12, 44.03
270777, 566671566, 571634695, -0.20, 0.99, 0.95, 0.15, 0.57, 0.13, 44.04
270778, 566673550, 571636679, -0.13, 0.88, 0.68, -0.06, 0.45, 0.02, 44.04
270779, 566675564, 571638693, -0.18, -0.22, 2.56, 0.03, -0.23, -0.12, 44.05
270780, 566677548, 571640677, 0.22, -0.76, 0.87, -0.07, -0.67, -0.19, 44.04
270781, 566679562, 571642691, 0.04, -1.14, 0.73, 0.10, -0.68, -0.11, 44.03
270782, 566681546, 571644675, 0.38, -0.25, 1.20, 0.31, -0.31, 0.03, 44.03
270783, 566683560, 571646689, 0.18, 0.48, -0.04, 0.23, 0.27, 0.15, 44.03
270784, 566685575, 571648704, -0.16, 1.15, 1.38, 0.18, 0.49, 0.18, 44.04
270785, 566687559, 571650688, -0.09, 0.77, 0.51, -0.02, 0.35, 0.07, 44.03
270786, 566689573, 571652702, -0.07, -0.14, 2.27, 0.07, -0.22, -0.08, 44.03
270787, 566691557, 571654686, 0.09, -0.64, 1.08, -0.08, -0.62, -0.17, 44.02
270788, 566693571, 571656700, 0.08, -0.94, 0.79, 0.04, -0.54, -0.14, 44.01
270789, 566695555, 571658684, 0.35, -0.27, 1.22, 0.28, -0.29, -0.04, 44.03
270790, 566697569, 571660698, 0.18, 0.37, -0.09, 0.25, 0.20, 0.08, 44.03
270791, 566699553, 571662682, -0.11, 1.02, 1.28, 0.19, 0.34, 0.13, 44.03
270792, 566701568, 571664697, -0.06, 0.67, 0.75, 0.02, 0.24, 0.06, 44.06
270793, 566703551, 571666680, -0.05, -0.19, 2.14, 0.06, -0.15, -0.04, 44.03
270794, 566705566, 571668695, 0.14, -0.71, 0.78, -0.09, -0.49, -0.09, 44.00
270795, 566707550, 571670679, 0.03, -0.72, 1.04, 0.03, -0.43, -0.07, 43.99
270796, 566709564, 571672693, 0.25, -0.12, 1.39, 0.28, -0.25, -0.00, 44.05
270797, 566711548, 571674677, 0.14, 0.54, -0.16, 0.25, 0.20, 0.07, 44.06
270798, 566713562, 571676691, -0.16, 0.93, 0.90, 0.19, 0.25, 0.07, 44.08
270799, 566715546, 571678675, 0.13, 0.56, 0.88, 0.09, 0.08, -0.00, 44.06
270800, 566717561, 571680690, 0.03, -0.42, 2.37, 0.00, -0.22, -0.08, 44.05
270801, 566719575, 571682704, 0.20, -0.78, 0.96, -0.12, -0.40, -0.09, 44.09
270802, 566721559, 571684688, -0.06, -0.86, 0.65, 0.07, -0.26, -0.03, 44.07
270803, 566723573, 571686702, 0.22, 0.02, 1.72, 0.32, -0.11, 0.06, 44.02
270804, 566725557, 571688686, 0.04, 0.76, -0.22, 0.25, 0.26, 0.10, 44.04
270805, 566727571, 571690700, -0.12, 1.12, 0.82, 0.22, 0.18, 0.06, 44.07
270806, 566729555, 571692684, 0.18, 0.54, 0.82, 0.16, -0.06, -0.03, 44.00
270807, 566731570, 571694699, 0.06, -0.35, 2.22, -0.07, -0.27, -0.11, 44.00
270808, 566733553, 571696682, 0.20, -0.95, 1.15, -0.18, -0.33, -0.12, 44.07
270809, 566735568, 571698697, 0.03, -0.98, 0.56, 0.04, -0.15, -0.03, 44.06
270810, 566737552, 571700681, 0.12, -0.17, 2.06, 0.34, -0.06, 0.09, 44.00
270811, 566739566, 571702695, -0.06, 0.77, -0.41, 0.29, 0.30, 0.12, 44.04
270812, 566741550, 571704679, -0.03, 1.14, 0.78, 0.28, 0.19, 0.08, 44.03
270813, 566743564, 571706693, 0.21, 0.66, 0.64, 0.24, -0.12, -0.01, 44.04
270814, 566745548, 571708677, 0.08, -0.18, 2.16, -0.10, -0.31, -0.11, 44.03
270815, 566747563, 571710692, 0.17, -0.78, 1.38, -0.19, -0.28, -0.13, 44.07
270816, 566749546, 571712675, 0.19, -0.94, 0.48, -0.01, -0.01, -0.06, 44.04
270817, 566751561, 571714690, -0.03, -0.34, 2.04, 0.31, 0.03, 0.05, 44.02
270818, 566753575, 571716704, -0.12, 0.68, -0.46, 0.29, 0.30, 0.09, 44.03
270819, 566755559, 571718688, -0.14, 0.94, 1.14, 0.28, 0.15, 0.06, 44.02
270820, 566757573, 571720702, 0.22, 0.65, 0.59, 0.28, -0.16, -0.00, 44.02
270821, 566759557, 571722686, 0.18, -0.12, 1.95, -0.06, -0.35, -0.06, 44.04
270822, 566761572, 571724701, 0.16, -0.76, 1.46, -0.15, -0.25, -0.07, 44.04
270823, 566763555, 571726684, 0.30, -0.69, 0.53, -0.07, 0.11, -0.01, 44.04
270824, 566765570, 571728699, -0.15, -0.24, 1.74, 0.28, 0.13, 0.07, 44.03
270825, 566767554, 571730683, -0.03, 0.68, -0.27, 0.33, 0.28, 0.06, 44.03
270826, 566769568, 571732697, -0.09, 0.85, 1.43, 0.27, 0.08, 0.01, 44.00
270827, 566771552, 571734681, 0.21, 0.37, 0.10, 0.20, -0.19, -0.04, 43.99
270828, 566773566, 571736695, 0.22, -0.24, 1.89, -0.07, -0.34, -0.07, 44.03
270829, 566775550, 571738679, 0.17, -0.83, 1.75, -0.07, -0.20, -0.04, 44.02
270830, 566777565, 571740694, 0.27, -0.40, 0.71, -0.08, 0.26, 0.02, 44.05
270831, 566779548, 571742677, -0.34, -0.14, 1.12, 0.27, 0.30, 0.08, 44.01
270832, 566781563, 571744692, 0.01, 0.92, 0.31, 0.39, 0.27, 0.04, 44.00
270833, 566783547, 571746676, -0.15, 0.78, 1.17, 0.25, -0.00, -0.03, 44.06
270834, 566785561, 571748690, 0.25, 0.31, 0.27, 0.11, -0.27, -0.08, 44.08
270835, 566787575, 571750704, 0.32, -0.60, 1.28, -0.09, -0.39, -0.07, 44.06
270836, 566789559, 571752688, 0.30, -0.91, 2.43, -0.01, -0.20, 0.00, 44.02
270837, 566791574, 571754703, 0.27, -0.32, 0.65, -0.09, 0.35, 0.09, 44.02
270838, 566793557, 571756686, -0.39, -0.06, 0.76, 0.26, 0.50, 0.13, 44.03
270839, 566795572, 571758701, -0.10, 0.99, 0.55, 0.46, 0.34, 0.05, 44.03
270840, 566797556, 571760685, -0.16, 0.99, 0.96, 0.26, -0.01, -0.07, 44.01
270841, 566799570, 571762699, 0.17, 0.26, 0.54, 0.06, -0.35, -0.16, 44.04
270842, 566801554, 571764683, 0.42, -0.58, 0.89, -0.14, -0.45, -0.14, 44.06
270843, 566803568, 571766697, 0.25, -0.34, 0.56, -0.10, 0.38, 0.12, 44.02
270844, 566805552, 571768681, -0.45, -0.25, 0.57, 0.25, 0.70, 0.18, 44.02
270845, 566807566, 571770695, -0.15, 1.04, 0.69, 0.42, 0.40, 0.10, 44.04
270846, 566809550, 571772679, 0.00, 1.01, 0.81, 0.26, -0.09, -0.04, 44.04
270847, 566811565, 571774694, 0.12, 0.37, 1.26, 0.10, -0.52, -0.13, 44.08
270848, 566813549, 571776678, 0.60, -0.38, 0.76, -0.12, -0.43, -0.13, 44.06
270849, 566815563, 571778692, 0.24, -0.94, 2.12, -0.05, -0.06, -0.04, 44.04
270850, 566817547, 571780676, 0.12, -0.44, 0.49, -0.10, 0.44, 0.09, 44.08
270851, 566819561, 571782690, -0.50, -0.21, 1.00, 0.21, 0.74, 0.12, 44.07
270852, 566821576, 571784705, -0.27, 0.78, 0.99, 0.35, 0.35, 0.04, 44.04
270853, 566823559, 571786688, 0.08, 0.69, -0.12, 0.25, -0.14, -0.05, 44.04
270854, 566825574, 571788703, 0.05, 0.48, 2.12, 0.15, -0.63, -0.11, 44.07
270855, 566827558, 571790687, 0.70, -0.24, 0.58, -0.04, -0.38, -0.08, 44.07
270856, 566829572, 571792701, 0.26, -0.52, 1.88, -0.08, 0.09, 0.02, 44.02
270857, 566831556, 571794685, 0.15, -0.40, 0.32, -0.08, 0.45, 0.11, 44.09
270858, 566833570, 571796699, -0.42, -0.15, 1.25, 0.15, 0.68, 0.12, 44.08
270859, 566835554, 571798683, -0.31, 0.48, 1.59, 0.23, 0.30, 0.03, 44.07
270860, 566837568, 571800697, 0.01, 0.31, -0.90, 0.23, -0.05, -0.07, 44.06
270861, 566839552, 571802681, 0.00, 0.41, 2.43, 0.18, -0.61, -0.11, 44.04
270862, 566841567, 571804696, 0.70, -0.12, 0.47, 0.05, -0.41, -0.08, 44.04
270863, 566843551, 571806680, 0.15, -0.22, 1.75, -0.11, 0.11, 0.00, 44.05
270864, 566845565, 571808694, 0.10, -0.19, 0.56, -0.05, 0.51, 0.08, 44.03
270865, 566847549, 571810678, -0.38, 0.03, 0.92, 0.13, 0.64, 0.07, 44.03
270866, 566849563, 571812692, -0.32, 0.23, 2.11, 0.17, 0.15, 0.01, 44.01
270867, 566851547, 571814676, 0.14, 0.06, -1.17, 0.16, -0.14, -0.06, 44.01
270868, 566853561, 571816690, 0.25, 0.14, 2.36, 0.16, -0.61, -0.04, 44.02
270869, 566855576, 571818705, 0.70, -0.12, 0.50, 0.14, -0.31, 0.02, 44.03
270870, 566857560, 571820689, 0.00, 0.06, 1.84, -0.11, 0.30, 0.08, 44.03
270871, 566859574, 571822703, -0.10, -0.05, 0.20, -0.03, 0.70, 0.07, 44.05
270872, 566861558, 571824687, -0.43, 0.20, 1.13, 0.07, 0.57, -0.01, 44.07
270873, 566863572, 571826701, -0.24, 0.09, 2.34, 0.17, -0.11, -0.10, 44.07
270874, 566865556, 571828685, 0.18, -0.09, -1.09, 0.14, -0.35, -0.15, 44.05
270875, 566867570, 571830699, 0.32, -0.02, 2.28, 0.16, -0.63, -0.07, 44.01
270876, 566869554, 571832683, 0.62, -0.05, 0.21, 0.15, -0.20, 0.06, 44.05
270877, 566871569, 571834698, 0.03, 0.17, 2.02, -0.12, 0.43, 0.15, 44.05
270878, 566873553, 571836682, -0.21, -0.04, 0.23, -0.06, 0.81, 0.13, 44.04
270879, 566875567, 571838696, -0.23, 0.18, 0.66, 0.02, 0.52, 0.04, 44.01
270880, 566877551, 571840680, -0.25, 0.04, 2.82, 0.22, -0.31, -0.07, 44.03
270881, 566879565, 571842694, 0.20, -0.18, -1.12, 0.15, -0.49, -0.14, 44.06
270882, 566881549, 571844678, 0.35, 0.11, 2.11, 0.14, -0.52, -0.09, 44.06
270883, 566883563, 571846692, 0.50, 0.10, 0.18, 0.13, -0.04, 0.02, 44.07
270884, 566885547, 571848676, 0.02, 0.22, 2.24, -0.09, 0.45, 0.09, 44.07
270885, 566887562, 571850691, -0.36, -0.22, 0.13, -0.12, 0.74, 0.06, 44.05
270886, 566889545, 571852674, -0.19, 0.13, 0.87, -0.03, 0.41, -0.01, 44.07
270887, 566891560, 571854689, -0.32, -0.17, 2.64, 0.30, -0.40, -0.06, 44.05
270888, 566893574, 571856703, 0.34, -0.08, -0.82, 0.21, -0.52, -0.08, 44.03
270889, 566895558, 571858687, 0.36, 0.29, 1.94, 0.15, -0.43, -0.01, 44.03
270890, 566897572, 571860701, 0.44, 0.32, -0.21, 0.07, 0.07, 0.07, 44.08
270891, 566899556, 571862685, -0.08, 0.18, 1.92, -0.09, 0.49, 0.09, 44.06
270892, 566901571, 571864700, -0.26, -0.17, 0.81, -0.16, 0.65, 0.02, 44.04
270893, 566903555, 571866684, -0.16, -0.14, 0.81, -0.10, 0.27, -0.07, 44.07
270894, 566905569, 571868698, -0.28, -0.41, 2.47, 0.33, -0.51, -0.10, 44.05
270895, 566907553, 571870682, 0.35, -0.08, -0.14, 0.26, -0.58, -0.08, 44.04
270896, 566909567, 571872696, 0.26, 0.51, 1.43, 0.22, -0.35, 0.03, 44.02
270897, 566911551, 571874680, 0.47, 0.46, -0.14, 0.08, 0.21, 0.09, 44.03
270898, 566913596, 571876725, -0.12, 0.35, 1.64, -0.08, 0.55, 0.09, 44.04
270899, 566915549, 571878678, -0.28, -0.15, 1.00, -0.21, 0.52, -0.01, 44.01
270900, 566917564, 571880693, -0.18, -0.42, 0.80, -0.16, 0.11, -0.09, 44.04
270901, 566919547, 571882676, -0.12, -0.60, 2.32, 0.35, -0.58, -0.09, 44.04
270902, 566921562, 571884691, 0.37, -0.10, 0.23, 0.27, -0.57, -0.04, 44.06
270903, 566923546, 571886675, 0.29, 0.43, 0.83, 0.21, -0.25, 0.07, 44.04
270904, 566925560, 571888689, 0.44, 0.76, 0.65, 0.06, 0.30, 0.11, 44.04
270905, 566927574, 571890703, -0.25, 0.25, 0.81, -0.07, 0.61, 0.07, 44.08
270906, 566929558, 571892687, -0.25, 0.01, 1.60, -0.16, 0.40, -0.05, 44.05
270907, 566931573, 571894702, -0.34, -0.50, 0.83, -0.17, -0.05, -0.15, 44.07
270908, 566933556, 571896685, 0.07, -0.58, 2.06, 0.34, -0.65, -0.14, 44.07
270909, 566935571, 571898700, 0.48, -0.23, 0.02, 0.28, -0.62, -0.05, 44.07
270910, 566937555, 571900684, 0.39, 0.53, 1.03, 0.21, -0.24, 0.09, 44.07
270911, 566939569, 571902698, 0.37, 0.86, 0.94, 0.05, 0.33, 0.16, 44.05
270912, 566941553, 571904682, -0.37, 0.28, 0.77, -0.13, 0.73, 0.12, 44.03
270913, 566943567, 571906696, -0.27, -0.08, 1.50, -0.14, 0.48, -0.01, 44.05
270914, 566945551, 571908680, -0.51, -0.61, 0.74, -0.12, -0.12, -0.14, 44.05
270915, 566947566, 571910695, 0.13, -0.83, 1.70, 0.31, -0.71, -0.17, 43.99
270916, 566949549, 571912678, 0.49, -0.11, 0.03, 0.28, -0.74, -0.07, 44.07
270917, 566951564, 571914693, 0.50, 0.57, 1.34, 0.24, -0.32, 0.06, 44.03
270918, 566953548, 571916677, 0.45, 1.02, 0.79, 0.11, 0.29, 0.15, 44.03
270919, 566955562, 571918691, -0.36, 0.41, 1.26, -0.14, 0.77, 0.12, 44.05
270920, 566957546, 571920675, -0.21, -0.14, 1.01, -0.18, 0.58, -0.02, 44.04
270921, 566959560, 571922689, -0.56, -0.68, 0.90, -0.11, -0.11, -0.12, 44.07
270922, 566961605, 571924734, 0.11, -1.04, 2.10, 0.24, -0.73, -0.13, 44.09
270923, 566963558, 571926687, 0.29, -0.11, -0.19, 0.26, -0.72, -0.03, 44.13
270924, 566965573, 571928702, 0.37, 1.04, 0.94, 0.18, 0.31, 0.15, 44.06
270925, 566967557, 571930686, -0.11, 0.63, 1.28, -0.10, 0.64, 0.08, 44.05
270926, 566969571, 571932700, -0.11, -0.00, 0.98, -0.21, 0.43, -0.07, 44.04
270927, 566971555, 571934684, -0.30, -0.79, 0.90, -0.07, -0.21, -0.14, 44.02
270928, 566973569, 571936698, 0.06, -1.03, 2.19, 0.25, -0.68, -0.12, 44.05
270929, 566975553, 571938682, 0.04, -0.13, 0.28, 0.21, -0.50, -0.01, 44.09
270930, 566977568, 571940697, 0.50, 0.54, 0.61, 0.24, -0.02, 0.11, 44.05
270931, 566979551, 571942680, 0.08, 0.82, 0.29, 0.19, 0.30, 0.17, 44.02
270932, 566981566, 571944695, 0.04, 0.60, 1.87, -0.01, 0.41, 0.09, 44.06
270933, 566983550, 571946679, -0.15, -0.02, 1.05, -0.19, 0.22, -0.06, 44.07
270934, 566985564, 571948693, -0.04, -0.68, 0.77, -0.04, -0.19, -0.13, 44.06
270935, 566987548, 571950677, -0.02, -0.78, 1.78, 0.23, -0.54, -0.11, 44.05
270936, 566989562, 571952691, 0.04, -0.05, 0.82, 0.21, -0.40, -0.01, 44.04
270937, 566991546, 571954675, 0.40, 0.62, 0.70, 0.20, 0.04, 0.08, 44.10
270938, 566993560, 571956689, -0.06, 0.63, -0.29, 0.12, 0.29, 0.12, 44.07
270939, 566995575, 571958704, 0.17, 0.41, 2.04, 0.03, 0.31, 0.06, 44.08
270940, 566997559, 571960688, -0.24, -0.25, 1.71, -0.17, 0.07, -0.04, 44.04
270941, 566999573, 571962702, 0.10, -0.78, 0.75, -0.03, -0.20, -0.08, 44.03
270942, 567001557, 571964686, 0.02, -0.53, 1.51, 0.23, -0.46, -0.04, 44.03
270943, 567003571, 571966700, 0.24, 0.08, 0.61, 0.33, -0.35, 0.03, 44.01
270944, 567005555, 571968684, 0.26, 0.88, 0.42, 0.25, 0.07, 0.08, 44.01
270945, 567007570, 571970699, -0.12, 0.76, 0.06, 0.03, 0.33, 0.07, 44.04
270946, 567009553, 571972682, 0.16, 0.31, 1.43, -0.02, 0.32, -0.02, 44.09
270947, 567011568, 571974697, -0.39, -0.52, 2.44, -0.14, -0.04, -0.10, 44.10
270948, 567013552, 571976681, 0.11, -1.06, 0.81, -0.03, -0.26, -0.10, 44.04
270949, 567015566, 571978695, 0.06, -0.60, 1.38, 0.19, -0.47, -0.01, 44.03
270950, 567017550, 571980679, 0.31, -0.01, 0.75, 0.41, -0.34, 0.09, 44.07
270951, 567019564, 571982693, 0.26, 1.14, 0.22, 0.31, 0.12, 0.14, 44.07
270952, 567021548, 571984677, -0.19, 1.09, 0.26, 0.08, 0.41, 0.08, 44.07
270953, 567023562, 571986691, 0.13, 0.51, 0.59, -0.05, 0.33, -0.05, 44.08
270954, 567025546, 571988675, -0.22, -0.53, 2.90, -0.11, -0.18, -0.14, 44.03
270955, 567027561, 571990690, 0.14, -1.18, 1.54, -0.10, -0.40, -0.13, 44.06
270956, 567029575, 571992704, -0.02, -0.91, 0.57, 0.10, -0.36, -0.02, 44.05
270957, 567031559, 571994688, 0.25, 0.01, 1.45, 0.46, -0.18, 0.09, 44.05
270958, 567033573, 571996702, 0.11, 0.94, -0.51, 0.33, 0.20, 0.15, 44.08
270959, 567035557, 571998686, -0.06, 1.15, 0.92, 0.12, 0.33, 0.07, 44.09
270960, 567037571, 572000700, 0.11, 0.65, 0.28, -0.06, 0.13, -0.05, 44.06
270961, 567039555, 572002684, 0.06, -0.45, 3.07, -0.03, -0.30, -0.12, 44.04
270962, 567041570, 572004699, -0.02, -1.19, 1.00, -0.09, -0.41, -0.09, 44.05
270963, 567043554, 572006683, 0.02, -0.76, 0.52, 0.07, -0.12, -0.01, 44.04
270964, 567045568, 572008697, 0.18, 0.07, 2.10, 0.41, -0.03, 0.08, 44.06
270965, 567047552, 572010681, 0.09, 0.68, -1.04, 0.26, 0.16, 0.11, 44.05
270966, 567049566, 572012695, -0.05, 1.10, 1.40, 0.19, 0.11, 0.05, 44.04
270967, 567051550, 572014679, 0.16, 0.35, 0.03, 0.02, 0.00, -0.05, 44.07
270968, 567053564, 572016693, 0.17, -0.35, 2.69, 0.01, -0.17, -0.09, 44.06
270969, 567055548, 572018677, -0.20, -1.03, 1.04, -0.11, -0.29, -0.06, 44.02
270970, 567057563, 572020692, 0.23, -0.53, 0.71, 0.05, -0.04, -0.00, 44.07
270971, 567059546, 572022675, -0.06, 0.21, 2.55, 0.37, -0.10, 0.07, 44.06
270972, 567061561, 572024690, 0.09, 0.71, -1.56, 0.27, 0.18, 0.07, 44.06
270973, 567063575, 572026704, -0.20, 0.90, 1.43, 0.20, 0.11, 0.00, 44.06
270974, 567065559, 572028688, 0.25, 0.30, 0.49, 0.01, -0.08, -0.09, 44.08
270975, 567067573, 572030702, 0.19, -0.51, 2.10, -0.07, -0.23, -0.10, 44.05
270976, 567069557, 572032686, 0.08, -0.94, 1.60, -0.08, -0.40, -0.03, 44.07
270977, 567071572, 572034701, 0.34, -0.61, 0.42, 0.13, -0.08, 0.06, 44.04
270978, 567073556, 572036685, -0.34, 0.36, 2.41, 0.35, 0.01, 0.14, 44.04
270979, 567075570, 572038699, -0.02, 0.85, -1.34, 0.26, 0.44, 0.08, 44.03
270980, 567077554, 572040683, -0.22, 0.96, 1.17, 0.14, 0.23, -0.03, 44.08
270981, 567079568, 572042697, 0.30, 0.26, 1.28, 0.02, -0.27, -0.13, 44.06
270982, 567081552, 572044681, 0.21, -0.61, 1.55, -0.09, -0.51, -0.14, 44.11
270983, 567083566, 572046695, 0.23, -1.02, 1.70, 0.00, -0.52, -0.05, 44.08
270984, 567085550, 572048679, 0.26, -0.67, -0.11, 0.14, 0.05, 0.07, 44.06
270985, 567087565, 572050694, -0.34, 0.32, 2.56, 0.29, 0.28, 0.16, 44.04
270986, 567089548, 572052677, -0.00, 1.04, -0.54, 0.23, 0.54, 0.10, 44.01
270987, 567091563, 572054692, -0.24, 0.89, 0.61, 0.09, 0.13, -0.02, 44.07
270988, 567093547, 572056676, 0.21, 0.37, 1.86, 0.14, -0.45, -0.11, 44.07
270989, 567095561, 572058690, 0.07, -0.47, 0.91, -0.04, -0.54, -0.12, 44.07
270990, 567097575, 572060704, 0.26, -0.98, 1.58, 0.01, -0.33, -0.06, 44.07
270991, 567099559, 572062688, 0.29, -0.64, 0.22, 0.01, 0.12, 0.04, 44.05
270992, 567101574, 572064703, -0.13, -0.01, 2.09, 0.17, 0.20, 0.13, 44.06
270993, 567103558, 572066687, -0.01, 0.79, 0.32, 0.30, 0.31, 0.09, 44.10
270994, 567105572, 572068701, -0.11, 0.80, 0.35, 0.19, 0.05, 0.01, 44.11
270995, 567107556, 572070685, 0.23, 0.52, 1.85, 0.25, -0.33, -0.05, 44.09
270996, 567109570, 572072699, 0.13, -0.21, 0.33, -0.06, -0.32, -0.08, 44.06
270997, 567111554, 572074683, 0.10, -0.74, 1.99, -0.02, -0.15, -0.08, 44.05
270998, 567113568, 572076697, 0.23, -0.43, 0.39, -0.09, 0.05, -0.01, 44.08
270999, 567115552, 572078681, -0.17, -0.45, 1.47, 0.17, 0.06, 0.05, 44.07
271000, 567117567, 572080696, -0.11, 0.47, 0.72, 0.33, 0.11, 0.05, 44.06
271001, 567119550, 572082679, 0.16, 0.63, 0.47, 0.21, 0.09, 0.01, 44.04
271002, 567121565, 572084694, 0.21, 0.69, 1.73, 0.26, -0.22, -0.00, 44.02
271003, 567123549, 572086678, 0.31, -0.11, -0.15, 0.00, -0.29, -0.02, 44.05
271004, 567125563, 572088692, 0.15, -0.42, 2.52, -0.01, -0.19, -0.03, 44.07
271005, 567127547, 572090676, 0.06, -0.44, 0.36, -0.19, 0.08, 0.01, 44.10
271006, 567129561, 572092690, -0.26, 0.29, 1.03, 0.31, 0.17, 0.00, 44.07
271007, 567131576, 572094705, 0.16, 0.60, 0.22, 0.22, 0.01, -0.04, 44.09
271008, 567133560, 572096689, 0.08, 0.66, 1.80, 0.27, -0.46, -0.05, 44.07
271009, 567135574, 572098703, 0.58, -0.05, -0.15, 0.08, -0.45, -0.04, 44.08
271010, 567137558, 572100687, 0.26, -0.24, 2.84, -0.00, -0.17, 0.01, 44.10
271011, 567139572, 572102701, 0.16, -0.47, 0.27, -0.25, 0.26, 0.06, 44.09
271012, 567141556, 572104685, -0.45, -0.48, 0.86, 0.09, 0.50, 0.08, 44.08
271013, 567143570, 572106699, -0.29, 0.15, 1.50, 0.30, 0.15, 0.04, 44.07
271014, 567145554, 572108683, 0.12, 0.59, 0.07, 0.27, -0.09, -0.03, 44.08
271015, 567147569, 572110698, -0.02, 0.63, 1.79, 0.30, -0.48, -0.07, 44.09
271016, 567149552, 572112681, 0.64, 0.17, -0.58, 0.10, -0.37, -0.09, 44.08
271017, 567151567, 572114696, 0.14, -0.19, 2.95, -0.05, -0.16, -0.05, 44.09
271018, 567153551, 572116680, 0.18, -0.47, 0.84, -0.26, 0.23, 0.00, 44.06
271019, 567155565, 572118694, -0.44, -0.67, 0.41, 0.03, 0.50, 0.04, 44.08
271020, 567157549, 572120678, -0.11, -0.01, 1.81, 0.33, 0.06, 0.06, 44.09
271021, 567159563, 572122692, 0.09, 0.41, -0.39, 0.31, -0.17, 0.04, 44.04
271022, 567161547, 572124676, 0.06, 0.76, 2.22, 0.34, -0.42, 0.01, 44.09
271023, 567163561, 572126690, 0.55, 0.51, -0.66, 0.11, -0.18, -0.02, 44.04
271024, 567165545, 572128674, 0.10, 0.01, 2.44, -0.11, -0.02, -0.04, 44.12
271025, 567167560, 572130689, 0.05, -0.51, 1.35, -0.26, 0.19, -0.04, 44.08
271026, 567169574, 572132703, -0.35, -0.84, 0.33, -0.06, 0.43, -0.05, 44.07
271027, 567171558, 572134687, -0.02, -0.19, 1.83, 0.33, -0.02, -0.01, 44.07
271028, 567173572, 572136701, 0.06, 0.15, -0.53, 0.39, -0.26, 0.00, 44.04
271029, 567175556, 572138685, 0.25, 0.86, 2.17, 0.38, -0.43, 0.03, 44.03
271030, 567177571, 572140700, 0.49, 0.76, -0.17, 0.10, -0.11, 0.02, 44.06
271031, 567179554, 572142683, 0.13, 0.18, 1.91, -0.14, 0.15, 0.02, 44.08
271032, 567181569, 572144698, -0.22, -0.47, 1.39, -0.21, 0.31, -0.01, 44.07
271033, 567183553, 572146682, -0.28, -0.78, 0.64, -0.12, 0.44, -0.06, 44.02
271034, 567185567, 572148696, -0.18, -0.48, 1.51, 0.24, -0.10, -0.05, 44.04
271035, 567187551, 572150680, 0.26, 0.00, -0.05, 0.41, -0.41, -0.02, 44.04
271036, 567189565, 572152694, 0.33, 0.70, 1.60, 0.41, -0.47, 0.03, 44.04
271037, 567191549, 572154678, 0.45, 0.91, 0.38, 0.13, -0.07, 0.06, 44.07
271038, 567193563, 572156692, 0.19, 0.27, 1.33, -0.14, 0.34, 0.04, 44.11
271039, 567195547, 572158676, -0.31, -0.40, 1.42, -0.18, 0.42, 0.00, 44.14
271040, 567197562, 572160691, -0.09, -0.65, 0.86, -0.14, 0.38, -0.06, 44.08
271041, 567199546, 572162675, -0.31, -0.47, 1.30, 0.21, -0.19, -0.08, 44.07
271042, 567201560, 572164689, 0.38, 0.07, 0.65, 0.47, -0.48, -0.05, 44.07
271043, 567203574, 572166703, 0.19, 0.40, 0.64, 0.39, -0.43, 0.02, 44.04
271044, 567205558, 572168687, 0.47, 0.94, 1.15, 0.11, -0.04, 0.07, 44.03
271045, 567207573, 572170702, 0.06, 0.16, 0.95, -0.20, 0.47, 0.07, 44.09
271046, 567209556, 572172685, -0.37, -0.33, 1.54, -0.16, 0.53, 0.02, 44.07
271047, 567211571, 572174700, -0.14, -0.55, 0.65, -0.10, 0.31, -0.06, 44.05
271048, 567213555, 572176684, -0.30, -0.31, 1.67, 0.24, -0.32, -0.09, 44.08
271049, 567215569, 572178698, 0.40, 0.08, 0.79, 0.52, -0.60, -0.08, 44.11
271050, 567217553, 572180682, 0.29, 0.48, -0.02, 0.28, -0.41, -0.01, 44.06
271051, 567219567, 572182696, 0.57, 0.63, 1.74, 0.09, -0.04, 0.07, 44.07
271052, 567221551, 572184680, 0.06, 0.22, 1.13, -0.19, 0.56, 0.09, 44.08
271053, 567223565, 572186694, -0.40, -0.49, 1.10, -0.15, 0.73, 0.05, 44.10
271054, 567225549, 572188678, -0.25, -0.47, 0.39, -0.08, 0.37, -0.03, 44.09
271055, 567227564, 572190693, -0.36, -0.35, 2.17, 0.25, -0.38, -0.09, 44.08
271056, 567229548, 572192677, 0.47, 0.25, 0.70, 0.52, -0.71, -0.10, 44.07
271057, 567231562, 572194691, 0.37, 0.56, -0.33, 0.25, -0.49, -0.04, 44.13
271058, 567233546, 572196675, 0.66, 0.73, 2.09, 0.11, -0.09, 0.05, 44.11
271059, 567235560, 572198689, 0.08, 0.22, 0.83, -0.19, 0.62, 0.09, 44.10
271060, 567237575, 572200704, -0.40, -0.54, 1.38, -0.22, 0.86, 0.06, 44.08
271061, 567239558, 572202687, -0.24, -0.59, 0.15, -0.11, 0.43, -0.00, 44.07
271062, 567241573, 572204702, -0.32, -0.48, 2.47, 0.27, -0.42, -0.06, 44.07
271063, 567243557, 572206686, 0.29, -0.04, 0.27, 0.50, -0.71, -0.06, 44.03
271064, 567245571, 572208700, 0.44, 0.77, 0.21, 0.24, -0.40, -0.02, 44.07
271065, 567247555, 572210684, 0.52, 0.76, 1.78, 0.16, -0.01, 0.04, 44.06
271066, 567249569, 572212698, 0.05, 0.41, 0.56, -0.19, 0.63, 0.05, 44.10
271067, 567251553, 572214682, -0.34, -0.29, 2.00, -0.27, 0.76, 0.00, 44.09
271068, 567253567, 572216696, -0.12, -0.50, -0.22, -0.09, 0.30, -0.06, 44.07
271069, 567255551, 572218680, -0.33, -0.62, 2.53, 0.33, -0.46, -0.07, 44.05
271070, 567257566, 572220695, 0.23, -0.36, 0.19, 0.40, -0.58, -0.04, 44.05
271071, 567259550, 572222679, 0.49, 0.64, 0.65, 0.11, -0.18, 0.03, 44.05
271072, 567261564, 572224693, 0.25, 0.51, 0.93, 0.12, 0.13, 0.09, 44.06
271073, 567263548, 572226677, 0.17, 0.60, 1.21, -0.06, 0.51, 0.10, 44.08
271074, 567265562, 572228691, -0.19, -0.00, 1.90, -0.14, 0.50, 0.02, 44.05
271075, 567267546, 572230675, -0.12, -0.32, -0.57, -0.06, 0.21, -0.09, 44.10
271076, 567269560, 572232689, -0.20, -0.40, 2.84, 0.25, -0.32, -0.12, 44.14
271077, 567271575, 572234704, 0.08, -0.40, -0.01, 0.25, -0.39, -0.09, 44.10
271078, 567273559, 572236688, 0.30, 0.29, 1.17, 0.02, -0.10, -0.03, 44.07
271079, 567275573, 572238702, 0.13, 0.19, 0.62, 0.09, 0.11, 0.07, 44.04
271080, 567277557, 572240686, 0.27, 0.43, 0.99, 0.02, 0.34, 0.11, 44.07
271081, 567279571, 572242700, -0.16, 0.05, 1.75, -0.02, 0.32, 0.07, 44.05
271082, 567281555, 572244684, 0.01, 0.00, 0.12, -0.00, 0.18, -0.04, 44.06
271083, 567283569, 572246698, -0.01, -0.17, 2.15, 0.19, -0.21, -0.07, 44.08
271084, 567285553, 572248682, 0.05, -0.17, 0.45, 0.17, -0.29, -0.08, 44.10
271085, 567287568, 572250697, 0.15, 0.27, 1.38, 0.00, -0.07, -0.04, 44.09
271086, 567289551, 572252680, 0.05, 0.05, 0.38, 0.04, 0.21, 0.03, 44.07
271087, 567291566, 572254695, -0.19, -0.16, 1.60, 0.02, 0.18, 0.00, 44.12
271088, 567293550, 572256679, 0.17, -0.03, 1.03, 0.02, -0.02, -0.06, 44.14
271089, 567295564, 572258693, 0.05, -0.19, 1.68, 0.19, -0.25, -0.05, 44.10
271090, 567297548, 572260677, 0.02, 0.05, 0.96, 0.19, -0.21, -0.02, 44.10
271091, 567299562, 572262691, 0.13, 0.28, 0.92, 0.06, 0.05, 0.03, 44.11
271092, 567301546, 572264675, -0.03, 0.26, 0.22, -0.01, 0.34, 0.05, 44.07
271093, 567303561, 572266690, 0.05, 0.23, 0.23, -0.01, 0.32, 0.02, 44.07
271094, 567305575, 572268704, -0.02, -0.14, 1.76, 0.04, -0.01, -0.04, 44.06
271095, 567307559, 572270688, 0.21, -0.18, 1.79, 0.02, -0.22, -0.09, 44.05
271096, 567309573, 572272702, 0.12, -0.43, 1.17, 0.12, -0.21, -0.06, 44.09
271097, 567311557, 572274686, 0.08, 0.03, 1.45, 0.14, -0.07, -0.00, 44.08
271098, 567313571, 572276700, 0.04, 0.19, 0.21, 0.11, 0.16, 0.06, 44.12
271099, 567315555, 572278684, -0.19, 0.49, 0.57, 0.05, 0.32, 0.06, 44.07
271100, 567317570, 572280699, 0.04, 0.36, 0.10, 0.02, 0.19, 0.01, 44.08
271101, 567319553, 572282682, 0.04, 0.01, 1.64, 0.05, -0.12, -0.06, 44.06
271102, 567321568, 572284697, 0.04, -0.22, 2.22, -0.00, -0.27, -0.09, 44.07
271103, 567323552, 572286681, 0.20, -0.52, 0.72, 0.06, -0.06, -0.06, 44.07
271104, 567325566, 572288695, 0.13, -0.06, 1.94, 0.09, -0.02, 0.01, 44.08
271105, 567327550, 572290679, 0.06, 0.05, -0.09, 0.10, 0.10, 0.07, 44.09
271106, 567329564, 572292693, -0.16, 0.59, 0.73, 0.08, 0.20, 0.08, 44.10
271107, 567331548, 572294677, 0.02, 0.30, -0.18, 0.07, 0.13, 0.02, 44.08
271108, 567333563, 572296692, 0.12, 0.17, 1.81, 0.09, -0.06, -0.05, 44.11
271109, 567335546, 572298675, -0.03, -0.28, 2.19, -0.02, -0.27, -0.08, 44.12
271110, 567337561, 572300690, 0.25, -0.41, 0.73, -0.03, -0.03, -0.08, 44.08
271111, 567339575, 572302704, -0.02, -0.16, 2.08, 0.08, -0.05, -0.01, 44.09
271112, 567341559, 572304688, 0.07, 0.02, -0.18, 0.12, 0.11, 0.05, 44.11
271113, 567343573, 572306702, -0.19, 0.54, 0.57, 0.07, 0.16, 0.05, 44.13
271114, 567345557, 572308686, 0.09, 0.31, 0.13, 0.09, 0.03, 0.00, 44.10
271115, 567347572, 572310701, 0.16, 0.17, 1.45, 0.09, -0.13, -0.04, 44.07
271116, 567349555, 572312684, 0.03, -0.30, 2.42, -0.01, -0.27, -0.04, 44.12
271117, 567351570, 572314699, 0.19, -0.43, 0.39, -0.09, 0.02, -0.03, 44.12
271118, 567353554, 572316683, -0.16, -0.12, 2.80, 0.08, -0.02, 0.03, 44.07
271119, 567355568, 572318697, 0.10, 0.08, -0.69, 0.12, 0.19, 0.04, 44.07
271120, 567357552, 572320681, -0.13, 0.57, 0.55, 0.09, 0.11, 0.01, 44.07
271121, 567359566, 572322695, 0.15, 0.36, -0.01, 0.15, -0.18, -0.05, 44.09
271122, 567361550, 572324679, 0.25, 0.24, 1.82, 0.07, -0.29, -0.08, 44.09
271123, 567363565, 572326694, 0.16, -0.49, 2.36, -0.03, -0.27, -0.05, 44.10
271124, 567365548, 572328677, 0.17, -0.48, 0.29, -0.16, 0.11, 0.01, 44.08
271125, 567367563, 572330692, -0.26, -0.25, 2.92, 0.08, 0.11, 0.08, 44.08
271126, 567369547, 572332676, -0.02, 0.21, -0.68, 0.13, 0.28, 0.07, 44.08
271127, 567371591, 572334720, -0.16, 0.61, 0.04, 0.16, 0.06, 0.00, 44.07
271128, 567373575, 572336704, 0.22, 0.62, 0.63, 0.21, -0.37, -0.07, 44.13
271129, 567375559, 572338688, 0.28, 0.18, 1.59, 0.01, -0.40, -0.11, 44.14
271130, 567377574, 572340703, 0.16, -0.47, 2.34, -0.07, -0.21, -0.08, 44.12
271131, 567379557, 572342686, 0.12, -0.71, 0.26, -0.23, 0.19, 0.00, 44.08
271132, 567381572, 572344701, -0.28, -0.48, 2.72, 0.06, 0.16, 0.10, 44.12
271133, 567383556, 572346685, -0.06, 0.22, -0.19, 0.14, 0.24, 0.09, 44.11
271134, 567385570, 572348699, -0.13, 0.64, -0.50, 0.22, 0.03, 0.02, 44.12
271135, 567387554, 572350683, 0.24, 0.94, 1.21, 0.30, -0.46, -0.05, 44.11
271136, 567389568, 572352697, 0.32, 0.33, 1.25, 0.00, -0.41, -0.11, 44.10
271137, 567391552, 572354681, 0.12, -0.37, 2.66, -0.14, -0.11, -0.10, 44.07
271138, 567393566, 572356695, 0.12, -0.87, -0.19, -0.30, 0.21, -0.03, 44.08
271139, 567395550, 572358679, -0.28, -0.75, 2.45, 0.04, 0.12, 0.06, 44.08
271140, 567397565, 572360694, -0.12, 0.08, 0.53, 0.18, 0.09, 0.08, 44.08
271141, 567399549, 572362678, -0.06, 0.55, -0.84, 0.24, -0.02, 0.04, 44.13
271142, 567401563, 572364692, 0.27, 1.09, 1.52, 0.34, -0.42, -0.00, 44.10
271143, 567403547, 572366676, 0.38, 0.46, 0.91, 0.07, -0.32, -0.06, 44.12
271144, 567405561, 572368690, 0.06, -0.20, 2.89, -0.18, -0.05, -0.09, 44.09
271145, 567407576, 572370705, 0.22, -0.81, -0.07, -0.37, 0.18, -0.05, 44.09
271146, 567409559, 572372688, -0.35, -0.80, 1.98, 0.00, 0.06, 0.02, 44.10
271147, 567411574, 572374703, -0.14, -0.10, 0.45, 0.25, -0.02, 0.03, 44.13
271148, 567413558, 572376687, 0.02, 0.52, -0.76, 0.27, -0.01, 0.01, 44.14
271149, 567415572, 572378701, 0.21, 1.16, 1.86, 0.30, -0.40, 0.00, 44.09
271150, 567417556, 572380685, 0.46, 0.33, 0.80, 0.08, -0.29, -0.04, 44.08
271151, 567419570, 572382699, 0.03, -0.22, 3.24, -0.22, -0.05, -0.05, 44.10
271152, 567421554, 572384683, 0.13, -0.78, -0.15, -0.37, 0.22, -0.01, 44.09
271153, 567423568, 572386697, -0.49, -0.75, 1.39, 0.02, 0.13, 0.03, 44.13
271154, 567425552, 572388681, -0.05, -0.01, 0.70, 0.32, -0.10, 0.01, 44.14
271155, 567427567, 572390696, 0.15, 0.59, -0.79, 0.26, -0.15, -0.02, 44.11
271156, 567429551, 572392680, 0.20, 1.11, 2.09, 0.27, -0.49, -0.03, 44.08
271157, 567431565, 572394694, 0.53, 0.24, 0.56, 0.06, -0.21, -0.05, 44.10
271158, 567433549, 572396678, 0.12, -0.21, 3.56, -0.25, 0.00, -0.03, 44.09
271159, 567435563, 572398692, 0.06, -0.98, -0.32, -0.38, 0.27, 0.02, 44.10
271160, 567437547, 572400676, -0.48, -0.70, 1.24, 0.02, 0.19, 0.04, 44.07
271161, 567439561, 572402690, -0.14, -0.04, 0.56, 0.41, -0.13, 0.02, 44.06
271162, 567441576, 572404705, 0.18, 0.88, -0.47, 0.28, -0.21, -0.02, 44.10
271163, 567443560, 572406689, 0.16, 1.09, 2.23, 0.26, -0.50, -0.04, 44.06
271164, 567445574, 572408703, 0.48, 0.28, 0.24, 0.02, -0.14, -0.07, 44.05
271165, 567447588, 572410717, 0.14, -0.32, 3.52, -0.28, 0.01, -0.04, 44.09
271166, 567449572, 572412701, 0.01, -1.03, -0.13, -0.37, 0.28, -0.01, 44.06
271167, 567451556, 572414685, -0.45, -0.81, 1.18, 0.01, 0.20, 0.02, 44.13
271168, 567453570, 572416699, 0.12, 0.95, -0.30, 0.33, -0.29, 0.01, 44.06
271169, 567455554, 572418683, 0.23, 1.21, 2.70, 0.29, -0.43, -0.01, 44.08
271170, 567457569, 572420698, 0.56, 0.41, -0.18, -0.07, -0.00, -0.05, 44.13
271171, 567459553, 572422682, 0.03, -0.36, 3.40, -0.30, 0.07, -0.03, 44.11
271172, 567461567, 572424696, -0.06, -0.85, 0.27, -0.33, 0.24, -0.03, 44.10
271173, 567463551, 572426680, -0.49, -1.00, 0.86, 0.01, 0.17, -0.02, 44.12
271174, 567465565, 572428694, 0.00, -0.13, 0.09, 0.49, -0.25, 0.00, 44.12
271175, 567467549, 572430678, 0.14, 0.81, 0.15, 0.36, -0.41, 0.01, 44.07
271176, 567469563, 572432692, 0.36, 1.07, 2.83, 0.33, -0.41, 0.01, 44.10
271177, 567471547, 572434676, 0.60, 0.64, -0.14, -0.13, 0.13, 0.00, 44.14
271178, 567473562, 572436691, -0.11, -0.27, 2.81, -0.27, 0.22, 0.00, 44.15
271179, 567475545, 572438674, -0.20, -0.74, 0.63, -0.25, 0.25, -0.03, 44.08
271180, 567477560, 572440689, -0.41, -0.94, 1.02, -0.00, 0.11, -0.06, 44.11
271181, 567479574, 572442703, -0.08, -0.23, -0.15, 0.40, -0.33, -0.05, 44.11
271182, 567481558, 572444687, 0.16, 0.51, 0.37, 0.38, -0.48, -0.02, 44.12
271183, 567483572, 572446701, 0.43, 0.82, 2.55, 0.41, -0.38, 0.02, 44.13
271184, 567485556, 572448685, 0.64, 0.79, 0.36, -0.14, 0.16, 0.05, 44.10
271185, 567487571, 572450700, -0.01, -0.05, 1.97, -0.26, 0.33, 0.05, 44.09
271186, 567489555, 572452684, -0.15, -0.39, 0.97, -0.16, 0.28, -0.01, 44.12
271187, 567491569, 572454698, -0.40, -0.83, 1.06, 0.02, 0.08, -0.08, 44.13
271188, 567493553, 572456682, -0.16, -0.35, -0.18, 0.29, -0.34, -0.09, 44.12
271189, 567495567, 572458696, 0.25, 0.20, 0.61, 0.30, -0.48, -0.05, 44.11
271190, 567497551, 572460680, 0.37, 0.46, 2.40, 0.35, -0.32, 0.03, 44.09
271191, 567499565, 572462694, 0.50, 0.82, 0.52, -0.08, 0.19, 0.10, 44.12
271192, 567501549, 572464678, -0.09, 0.03, 1.71, -0.14, 0.45, 0.08, 44.12
271193, 567503564, 572466693, -0.18, -0.11, 1.01, -0.10, 0.31, -0.01, 44.12
271194, 567505547, 572468676, -0.25, -0.65, 0.63, 0.00, 0.00, -0.11, 44.10
271195, 567507562, 572470691, -0.12, -0.28, 0.34, 0.23, -0.46, -0.13, 44.12
271196, 567509546, 572472675, 0.46, 0.15, 1.07, 0.34, -0.51, -0.07, 44.12
271197, 567511560, 572474689, 0.31, 0.23, 1.50, 0.29, -0.21, 0.04, 44.09
271198, 567513574, 572476703, 0.40, 0.69, 1.12, -0.08, 0.25, 0.14, 44.08
271199, 567515558, 572478687, -0.15, -0.02, 1.51, -0.13, 0.61, 0.12, 44.07
271200, 567517573, 572480702, -0.28, -0.17, 0.69, -0.11, 0.43, 0.01, 44.10
271201, 567519556, 572482685, -0.20, -0.48, 0.69, 0.03, -0.04, -0.10, 44.09
271202, 567521571, 572484700, -0.11, -0.19, 0.74, 0.26, -0.62, -0.15, 44.10
271203, 567523555, 572486684, 0.63, 0.21, 1.09, 0.42, -0.56, -0.11, 44.13
271204, 567525569, 572488698, 0.30, 0.45, 1.09, 0.22, -0.16, 0.00, 44.12
271205, 567527553, 572490682, 0.43, 0.51, 1.19, -0.06, 0.29, 0.12, 44.13
271206, 567529567, 572492696, -0.24, -0.04, 1.79, -0.13, 0.64, 0.11, 44.13
271207, 567531551, 572494680, -0.37, -0.49, 0.51, -0.17, 0.49, 0.02, 44.13
271208, 567533566, 572496695, -0.17, -0.59, 0.29, 0.07, 0.01, -0.05, 44.09
271209, 567535549, 572498678, -0.12, -0.17, 1.66, 0.33, -0.63, -0.10, 44.13
271210, 567537564, 572500693, 0.60, 0.32, 0.56, 0.45, -0.49, -0.08, 44.10
271211, 567539548, 572502677, 0.29, 0.86, 1.56, 0.14, -0.17, 0.01, 44.13
271212, 567541562, 572504691, 0.50, 0.48, 0.55, 0.01, 0.22, 0.07, 44.07
271213, 567543546, 572506675, -0.26, 0.06, 1.64, -0.10, 0.58, 0.06, 44.08
271214, 567545560, 572508689, -0.38, -0.62, 0.78, -0.20, 0.51, -0.02, 44.07
271215, 567547575, 572510704, -0.22, -0.63, 0.18, 0.02, 0.10, -0.08, 44.10
271216, 567549558, 572512687, -0.14, -0.29, 2.65, 0.34, -0.62, -0.07, 44.07
271217, 567551573, 572514702, 0.59, 0.08, 0.03, 0.43, -0.46, -0.03, 44.12
271218, 567553557, 572516686, 0.36, 0.88, 1.31, 0.11, -0.16, 0.06, 44.10
271219, 567555571, 572518700, 0.39, 0.55, 0.35, 0.13, 0.22, 0.10, 44.11
271220, 567557555, 572520684, -0.25, 0.39, 1.86, -0.06, 0.52, 0.06, 44.12
271221, 567559569, 572522698, -0.20, -0.56, 0.59, -0.19, 0.45, -0.04, 44.10
271222, 567561553, 572524682, -0.20, -0.57, -0.08, -0.06, 0.06, -0.12, 44.10
271223, 567563568, 572526697, -0.03, -0.51, 3.26, 0.35, -0.58, -0.09, 44.15
271224, 567565551, 572528680, 0.33, -0.05, 0.10, 0.37, -0.37, -0.02, 44.09
271225, 567567566, 572530695, 0.28, 0.64, 1.13, 0.12, -0.03, 0.07, 44.14
271226, 567569550, 572532679, 0.29, 0.56, 0.18, 0.19, 0.30, 0.10, 44.09
271227, 567571564, 572534693, -0.12, 0.34, 1.32, -0.06, 0.41, 0.05, 44.13
271228, 567573548, 572536677, -0.12, -0.34, 1.27, -0.14, 0.22, -0.05, 44.13
271229, 567575562, 572538691, -0.08, -0.36, -0.20, -0.04, -0.08, -0.11, 44.10
271230, 567577546, 572540675, 0.13, -0.29, 3.46, 0.41, -0.45, -0.07, 44.11
271231, 567579560, 572542689, 0.08, -0.03, -0.40, 0.29, -0.18, 0.00, 44.13
271232, 567581575, 572544704, 0.21, 0.62, 1.64, 0.09, 0.12, 0.06, 44.12
271233, 567583559, 572546688, 0.05, 0.28, 0.17, 0.09, 0.32, 0.07, 44.11
271234, 567585573, 572548702, 0.08, 0.12, 1.26, -0.08, 0.27, 0.02, 44.11
271235, 567587557, 572550686, -0.15, -0.44, 0.94, -0.01, -0.04, -0.05, 44.07
271236, 567589571, 572552700, 0.06, -0.29, 0.55, 0.09, -0.18, -0.08, 44.08
271237, 567591555, 572554684, 0.16, -0.06, 2.67, 0.42, -0.22, -0.03, 44.06
271238, 567593570, 572556699, 0.03, 0.31, 0.04, 0.19, 0.03, 0.02, 44.10
271239, 567595553, 572558682, 0.12, 0.61, 1.29, 0.06, 0.19, 0.05, 44.10
271240, 567597568, 572560697, -0.08, 0.30, 0.71, 0.02, 0.22, 0.03, 44.08
271241, 567599552, 572562681, 0.16, -0.23, 0.49, -0.03, 0.12, -0.03, 44.10
271242, 567601596, 572564725, -0.18, -0.63, 1.16, 0.05, -0.16, -0.06, 44.14
271243, 567603550, 572566679, 0.31, -0.30, 1.31, 0.08, -0.21, -0.04, 44.13
271244, 567605564, 572568693, 0.08, 0.00, 2.03, 0.34, -0.09, 0.03, 44.12
271245, 567607548, 572570677, 0.09, 0.48, 0.57, 0.21, 0.14, 0.08, 44.10
271246, 567609562, 572572691, 0.01, 0.65, 0.77, 0.16, 0.26, 0.07, 44.09
271247, 567611546, 572574675, -0.16, 0.36, 0.49, 0.01, 0.18, -0.01, 44.13
271248, 567613561, 572576690, 0.07, -0.33, 0.27, -0.07, 0.03, -0.10, 44.15
271249, 567615575, 572578704, 0.04, -0.64, 1.51, 0.03, -0.28, -0.11, 44.13
271250, 567617559, 572580688, 0.34, -0.37, 1.84, 0.12, -0.29, -0.06, 44.15
271251, 567619573, 572582702, 0.14, 0.46, 0.77, 0.22, 0.25, 0.11, 44.10
271252, 567621557, 572584686, -0.09, 0.60, 0.03, 0.15, 0.33, 0.09, 44.14
271253, 567623571, 572586700, -0.16, 0.45, 0.92, 0.01, 0.09, 0.00, 44.10
271254, 567625555, 572588684, -0.01, -0.37, -0.16, -0.05, -0.08, -0.09, 44.12
271255, 567627570, 572590699, 0.22, -0.41, 1.90, 0.05, -0.32, -0.10, 44.17
271256, 567629554, 572592683, 0.19, -0.46, 1.77, 0.13, -0.27, -0.04, 44.13
271257, 567631568, 572594697, 0.17, 0.03, 1.80, 0.23, 0.07, 0.05, 44.11
271258, 567633552, 572596681, 0.05, 0.43, 1.25, 0.19, 0.27, 0.09, 44.17
271259, 567635566, 572598695, -0.16, 0.43, -0.69, 0.13, 0.32, 0.05, 44.16
271260, 567637550, 572600679, -0.14, 0.41, 1.17, 0.04, -0.03, -0.02, 44.12
271261, 567639564, 572602693, 0.05, -0.28, -0.20, 0.01, -0.18, -0.09, 44.11
271262, 567641548, 572604677, 0.21, -0.33, 2.04, 0.09, -0.26, -0.08, 44.11
271263, 567643563, 572606692, 0.23, -0.35, 1.58, 0.11, -0.15, -0.01, 44.13
271264, 567645546, 572608675, 0.21, -0.07, 1.57, 0.16, 0.12, 0.07, 44.10
271265, 567647561, 572610690, -0.09, 0.41, 1.91, 0.18, 0.17, 0.10, 44.09
271266, 567649575, 572612704, -0.10, 0.36, -1.03, 0.09, 0.29, 0.04, 44.11
271267, 567651559, 572614688, -0.13, 0.37, 1.01, 0.09, -0.02, -0.04, 44.12
271268, 567653573, 572616702, 0.09, -0.15, 0.06, 0.07, -0.24, -0.11, 44.12
271269, 567655557, 572618686, 0.22, -0.26, 1.83, 0.04, -0.27, -0.09, 44.12
271270, 567657572, 572620701, 0.20, -0.35, 1.98, 0.08, -0.14, -0.01, 44.12
271271, 567659556, 572622685, 0.25, -0.17, 1.42, 0.13, 0.15, 0.07, 44.09
271272, 567661570, 572624699, -0.21, 0.25, 2.12, 0.21, 0.18, 0.11, 44.10
271273, 567663554, 572626683, -0.02, 0.38, -1.14, 0.08, 0.31, 0.04, 44.05
271274, 567665568, 572628697, -0.21, 0.42, 0.15, 0.12, -0.03, -0.05, 44.14
271275, 567667552, 572630681, 0.18, 0.17, 0.88, 0.17, -0.40, -0.10, 44.08
271276, 567669566, 572632695, 0.18, -0.15, 1.65, -0.01, -0.29, -0.08, 44.10
271277, 567671550, 572634679, 0.20, -0.29, 2.37, 0.02, 0.00, -0.02, 44.10
271278, 567673565, 572636694, 0.19, -0.45, 0.56, 0.03, 0.27, 0.06, 44.13
271279, 567675548, 572638677, -0.38, -0.15, 2.34, 0.17, 0.14, 0.10, 44.09
271280, 567677563, 572640692, 0.06, 0.24, -0.23, 0.08, 0.12, 0.03, 44.11
271281, 567679547, 572642676, -0.09, 0.31, -0.64, 0.16, -0.15, -0.02, 44.11
271282, 567681561, 572644690, 0.37, 0.51, 1.26, 0.33, -0.44, -0.04, 44.13
271283, 567683575, 572646704, 0.21, 0.32, 1.46, 0.08, -0.17, -0.04, 44.15
271284, 567685559, 572648688, 0.13, -0.05, 2.33, -0.02, 0.19, -0.04, 44.10
271285, 567687574, 572650703, 0.11, -0.48, -0.07, -0.15, 0.35, -0.00, 44.12
271286, 567689558, 572652687, -0.41, -0.52, 2.63, 0.09, -0.00, 0.01, 44.16
271287, 567691572, 572654701, 0.01, -0.15, 0.33, 0.10, -0.14, -0.01, 44.14
271288, 567693556, 572656685, -0.07, 0.02, -0.53, 0.18, -0.13, -0.00, 44.07
271289, 567695570, 572658699, 0.32, 0.73, 1.26, 0.39, -0.29, 0.03, 44.06
271290, 567697554, 572660683, 0.21, 0.60, 0.73, 0.17, -0.04, 0.03, 44.11
271291, 567699568, 572662697, 0.15, 0.38, 3.45, -0.02, 0.13, -0.00, 44.07
271292, 567701552, 572664681, 0.10, -0.44, -1.04, -0.30, 0.26, -0.02, 44.11
271293, 567703567, 572666696, -0.28, -0.59, 2.66, 0.04, -0.08, -0.03, 44.14
271294, 567705550, 572668679, -0.09, -0.50, 0.29, 0.15, -0.22, -0.04, 44.15
271295, 567707565, 572670694, 0.06, -0.06, -0.15, 0.20, -0.05, -0.02, 44.11
271296, 567709549, 572672678, 0.24, 0.72, 1.02, 0.33, -0.22, 0.05, 44.17
271297, 567711563, 572674692, 0.41, 0.61, 0.67, 0.21, -0.02, 0.06, 44.19
271298, 567713547, 572676676, 0.04, 0.44, 4.33, 0.02, 0.03, 0.03, 44.13
271299, 567715561, 572678690, -0.06, -0.56, -1.68, -0.35, 0.33, -0.01, 44.13
271300, 567717576, 572680705, -0.34, -0.53, 2.25, 0.01, 0.04, -0.06, 44.16
271301, 567719560, 572682689, 0.01, -0.49, 0.29, 0.22, -0.32, -0.07, 44.14
271302, 567721574, 572684703, 0.22, 0.22, 0.37, 0.27, -0.22, -0.04, 44.15
271303, 567723558, 572686687, 0.16, 0.81, 0.65, 0.26, -0.30, 0.05, 44.16
271304, 567725572, 572688701, 0.53, 0.62, 0.74, 0.19, 0.09, 0.06, 44.11
271305, 567727556, 572690685, -0.19, 0.21, 4.49, -0.04, 0.12, 0.05, 44.09
271306, 567729570, 572692699, -0.09, -0.68, -1.38, -0.43, 0.43, -0.01, 44.10
271307, 567731554, 572694683, -0.42, -0.82, 1.81, -0.05, 0.00, -0.05, 44.09
271308, 567733569, 572696698, 0.24, -0.46, 0.56, 0.35, -0.48, -0.05, 44.09
271309, 567735552, 572698681, 0.11, 0.47, 0.32, 0.41, -0.38, -0.01, 44.08
271310, 567737567, 572700696, 0.20, 1.11, 0.42, 0.30, -0.23, 0.05, 44.10
271311, 567739551, 572702680, 0.58, 0.81, 0.74, 0.12, 0.27, 0.02, 44.11
271312, 567741565, 572704694, -0.26, 0.09, 4.27, -0.19, 0.18, -0.00, 44.10
271313, 567743549, 572706678, 0.03, -0.70, -0.20, -0.47, 0.34, -0.06, 44.11
271314, 567745563, 572708692, -0.58, -1.30, 0.80, -0.09, -0.10, -0.06, 44.16
271315, 567747547, 572710676, 0.22, -0.64, 0.53, 0.47, -0.47, -0.02, 44.13
271316, 567749561, 572712690, -0.03, 0.62, 0.47, 0.46, -0.37, 0.06, 44.11
271317, 567751545, 572714674, 0.47, 1.31, 0.51, 0.33, -0.14, 0.10, 44.12
271318, 567753560, 572716689, 0.56, 1.16, 1.30, 0.05, 0.28, 0.05, 44.13
271319, 567755574, 572718703, -0.16, -0.02, 3.16, -0.25, 0.17, -0.01, 44.14
271320, 567757558, 572720687, -0.15, -0.75, 0.63, -0.38, 0.24, -0.09, 44.16
271321, 567759572, 572722701, -0.65, -1.47, 0.40, -0.11, -0.09, -0.11, 44.12
271322, 567761556, 572724685, 0.22, -0.74, 0.33, 0.46, -0.38, -0.06, 44.09
271323, 567763571, 572726700, 0.11, 0.60, 0.19, 0.43, -0.45, 0.04, 44.13
271324, 567765554, 572728683, 0.73, 1.42, 1.50, 0.40, -0.29, 0.11, 44.08
271325, 567767569, 572730698, 0.42, 1.24, 1.67, 0.02, 0.17, 0.10, 44.12
271326, 567769553, 572732682, -0.28, -0.09, 2.08, -0.26, 0.42, 0.04, 44.12
271327, 567771567, 572734696, -0.36, -0.84, 0.64, -0.34, 0.46, -0.07, 44.13
271328, 567773551, 572736680, -0.53, -1.42, 0.49, -0.15, -0.04, -0.13, 44.13
271329, 567775565, 572738694, 0.18, -0.79, 0.23, 0.37, -0.57, -0.09, 44.14
271330, 567777549, 572740678, 0.25, 0.60, 0.00, 0.44, -0.72, 0.02, 44.15
271331, 567779563, 572742692, 0.70, 1.35, 2.42, 0.54, -0.36, 0.09, 44.14
271332, 567781547, 572744676, 0.33, 1.30, 0.91, 0.03, 0.33, 0.12, 44.10
271333, 567783562, 572746691, -0.36, -0.85, 0.58, -0.42, 0.41, -0.09, 44.11
271334, 567785546, 572748675, -0.38, -1.35, 1.21, -0.11, -0.30, -0.13, 44.12
271335, 567787560, 572750689, 0.03, -0.87, -0.04, 0.40, -0.70, -0.07, 44.14
271336, 567789574, 572752703, 0.37, 0.49, 0.20, 0.45, -0.55, 0.05, 44.12
271337, 567791558, 572754687, 0.53, 1.34, 2.27, 0.49, -0.09, 0.12, 44.09
271338, 567793573, 572756702, 0.24, 1.19, 0.46, -0.04, 0.41, 0.12, 44.10
271339, 567795556, 572758685, -0.10, 0.22, 2.71, -0.31, 0.56, -0.01, 44.05
271340, 567797571, 572760700, -0.36, -0.85, -0.04, -0.38, 0.16, -0.14, 44.15
271341, 567799555, 572762684, -0.24, -1.32, 1.16, -0.03, -0.39, -0.16, 44.12
271342, 567801569, 572764698, -0.11, -0.57, 0.65, 0.37, -0.65, -0.07, 44.14
271343, 567803553, 572766682, 0.44, 0.55, 0.18, 0.41, -0.29, 0.04, 44.11
271344, 567805567, 572768696, 0.41, 1.30, 1.80, 0.38, 0.04, 0.12, 44.15
271345, 567807551, 572770680, 0.43, 0.82, 0.10, -0.06, 0.25, 0.14, 44.17
271346, 567809565, 572772694, -0.12, 0.00, 3.50, -0.29, 0.33, 0.03, 44.14
271347, 567811549, 572774678, -0.18, -0.99, -0.15, -0.41, 0.20, -0.08, 44.10
271348, 567813564, 572776693, -0.16, -0.97, 1.11, 0.03, -0.15, -0.09, 44.15
271349, 567815548, 572778677, -0.28, -0.28, 0.26, 0.45, -0.56, -0.05, 44.09
271350, 567817562, 572780691, 0.41, 0.94, 0.54, 0.47, -0.27, -0.01, 44.10
271351, 567819546, 572782675, 0.12, 1.28, 1.49, 0.20, -0.02, 0.04, 44.14
271352, 567821560, 572784689, 0.52, 0.45, 0.54, -0.18, 0.24, 0.04, 44.11
271353, 567823575, 572786704, -0.29, -0.46, 3.08, -0.33, 0.26, -0.01, 44.13
271354, 567825558, 572788687, 0.04, -1.29, 0.25, -0.34, 0.15, -0.05, 44.12
271355, 567827573, 572790702, -0.10, -0.73, 0.68, 0.14, -0.16, -0.00, 44.09
271356, 567829557, 572792686, -0.04, -0.04, 0.30, 0.52, -0.52, 0.05, 44.11
271357, 567831571, 572794700, 0.55, 1.18, 0.52, 0.42, -0.19, 0.06, 44.13
271358, 567833555, 572796684, 0.08, 1.43, 2.33, 0.06, 0.08, 0.06, 44.10
271359, 567835569, 572798698, 0.30, 0.48, 0.08, -0.19, 0.45, -0.01, 44.13
271360, 567837553, 572800682, -0.40, -0.66, 2.35, -0.31, 0.30, -0.09, 44.09
271361, 567839567, 572802696, 0.10, -1.43, 0.80, -0.30, -0.04, -0.14, 44.09
271362, 567841551, 572804680, -0.23, -0.83, 0.39, 0.05, -0.36, -0.06, 44.11
271363, 567843566, 572806695, 0.18, 0.04, 0.85, 0.51, -0.52, 0.04, 44.15
271364, 567845550, 572808679, 0.42, 1.21, 0.77, 0.45, -0.06, 0.12, 44.14
271365, 567847564, 572810693, -0.00, 1.46, 2.08, 0.10, 0.30, 0.12, 44.14
271366, 567849548, 572812677, 0.08, 0.57, -0.22, -0.22, 0.54, 0.03, 44.18
271367, 567851562, 572814691, -0.23, -0.79, 2.10, -0.35, 0.16, -0.07, 44.16
271368, 567853546, 572816675, 0.13, -1.32, 1.37, -0.27, -0.27, -0.11, 44.12
271369, 567855560, 572818689, -0.05, -0.90, -0.08, 0.07, -0.39, -0.05, 44.15
271370, 567857575, 572820704, 0.34, 0.21, 1.65, 0.56, -0.29, 0.04, 44.12
271371, 567859559, 572822688, 0.18, 1.17, 0.28, 0.38, 0.15, 0.09, 44.10
271372, 567861573, 572824702, 0.12, 1.25, 1.98, 0.07, 0.39, 0.07, 44.10
271373, 567863557, 572826686, -0.06, 0.29, 0.06, -0.29, 0.42, -0.03, 44.10
