dsp clock from the systime interface: 546045534479
sequence_number, timestamp(us), updated_timestamp(us), acc_x, acc_y, acc_z, ang_x, ang_y, ang_z, temperature_C
257977, 541071588, 546034705, -0.18, -0.19, -0.21, -0.20, 0.12, 0.04, 42.27
257978, 541073572, 546036689, -0.19, -0.20, 1.35, 0.11, -0.16, -0.02, 42.24
257979, 541075586, 546038703, 0.25, -0.09, -0.04, 0.09, -0.27, -0.06, 42.26
257980, 541077570, 546040687, 0.44, 0.19, 1.66, 0.19, -0.23, -0.06, 42.24
257981, 541079584, 546042701, 0.16, 0.38, 1.19, 0.08, -0.12, 0.01, 42.22
257982, 541081568, 546044685, 0.02, -0.01, 1.16, 0.04, 0.24, 0.05, 42.24
257983, 541083582, 546046699, -0.18, 0.12, 1.68, -0.11, 0.21, 0.06, 42.27
257984, 541085566, 546048683, -0.24, -0.34, 0.13, -0.20, 0.07, 0.03, 42.22
257985, 541087581, 546050698, -0.06, -0.20, 1.41, 0.10, -0.26, -0.03, 42.21
257986, 541089565, 546052682, 0.38, -0.20, -0.21, 0.17, -0.36, -0.07, 42.21
257987, 541091579, 546054696, 0.36, 0.37, 2.03, 0.24, -0.27, -0.03, 42.16
257988, 541093563, 546056680, 0.10, 0.38, 0.42, 0.06, 0.01, 0.04, 42.27
257989, 541095577, 546058694, 0.05, 0.16, 1.93, 0.05, 0.40, 0.05, 42.23
257990, 541097561, 546060678, -0.16, 0.14, 1.04, -0.16, 0.21, 0.04, 42.25
257991, 541099575, 546062692, -0.24, -0.37, 0.56, -0.15, -0.07, 0.00, 42.27
257992, 541101559, 546064676, -0.12, -0.41, 1.40, 0.07, -0.35, -0.06, 42.25
257993, 541103574, 546066691, 0.48, -0.30, -0.34, 0.18, -0.27, -0.07, 42.21
257994, 541105557, 546068674, 0.16, 0.41, 1.98, 0.24, -0.20, -0.00, 42.21
257995, 541107572, 546070689, 0.23, 0.47, 0.48, 0.12, 0.02, 0.07, 42.23
257996, 541109586, 546072703, 0.05, 0.41, 2.51, 0.06, 0.34, 0.07, 42.22
257997, 541111570, 546074687, -0.13, 0.08, 0.16, -0.23, 0.18, 0.04, 42.22
257998, 541113584, 546076701, -0.18, -0.30, 1.35, -0.10, -0.05, -0.02, 42.20
257999, 541115568, 546078685, -0.15, -0.51, 1.11, 0.05, -0.28, -0.09, 42.24
258000, 541117583, 546080700, 0.47, -0.37, -0.50, 0.18, -0.17, -0.09, 42.22
258001, 541119567, 546082684, 0.02, 0.39, 1.95, 0.24, -0.25, -0.01, 42.22
258002, 541121581, 546084698, 0.37, 0.45, 0.35, 0.19, -0.06, 0.07, 42.22
258003, 541123565, 546086682, -0.03, 0.48, 2.55, 0.06, 0.24, 0.08, 42.23
258004, 541125579, 546088696, 0.02, 0.11, 0.42, -0.29, 0.22, 0.06, 42.23
258005, 541127563, 546090680, -0.20, -0.30, 1.20, -0.05, 0.08, -0.01, 42.21
258006, 541129577, 546092694, -0.17, -0.49, 1.46, 0.09, -0.20, -0.08, 42.19
258007, 541131561, 546094678, 0.31, -0.49, -0.94, 0.15, -0.09, -0.10, 42.24
258008, 541133576, 546096693, -0.04, 0.37, 2.10, 0.19, -0.34, -0.01, 42.24
258009, 541135559, 546098676, 0.57, 0.35, 0.35, 0.23, -0.17, 0.06, 42.27
258010, 541137574, 546100691, -0.01, 0.56, 2.45, 0.08, 0.14, 0.10, 42.24
258011, 541139558, 546102675, 0.23, 0.23, 0.40, -0.24, 0.30, 0.07, 42.20
258012, 541141572, 546104689, -0.42, -0.20, 1.20, -0.03, 0.24, -0.01, 42.21
258013, 541143586, 546106703, -0.11, -0.48, 1.63, 0.07, -0.11, -0.09, 42.20
258014, 541145570, 546108687, 0.21, -0.46, -0.89, 0.05, -0.07, -0.11, 42.21
258015, 541147585, 546110702, -0.05, 0.27, 2.47, 0.21, -0.40, -0.02, 42.20
258016, 541149568, 546112685, 0.52, 0.13, -0.36, 0.33, -0.18, 0.06, 42.22
258017, 541151583, 546114700, -0.05, 0.56, 2.56, 0.08, 0.07, 0.12, 42.24
258018, 541153567, 546116684, 0.40, 0.28, 0.62, -0.23, 0.32, 0.09, 42.24
258019, 541155581, 546118698, -0.45, -0.27, 0.74, -0.08, 0.35, 0.01, 42.24
258020, 541157565, 546120682, 0.10, -0.41, 2.28, 0.10, -0.04, -0.08, 42.27
258021, 541159579, 546122696, 0.06, -0.21, -0.79, 0.05, -0.10, -0.10, 42.26
258022, 541161563, 546124680, -0.10, 0.30, 1.73, 0.29, -0.40, -0.04, 42.21
258023, 541163578, 546126695, 0.43, 0.14, -0.32, 0.34, -0.13, 0.03, 42.24
258024, 541165561, 546128678, -0.04, 0.40, 2.84, -0.02, 0.06, 0.08, 42.24
258025, 541167576, 546130693, 0.47, 0.13, 0.99, -0.26, 0.28, 0.06, 42.21
258026, 541169560, 546132677, -0.49, -0.53, 0.61, -0.10, 0.35, 0.01, 42.21
258027, 541171574, 546134691, 0.27, -0.27, 2.43, 0.22, -0.01, -0.04, 42.24
258028, 541173558, 546136675, -0.19, -0.15, -1.56, 0.13, -0.08, -0.05, 42.25
258029, 541175572, 546138689, -0.04, 0.59, 1.91, 0.32, -0.33, -0.01, 42.24
258030, 541177587, 546140704, 0.49, 0.43, -0.10, 0.25, -0.09, 0.02, 42.22
258031, 541179570, 546142687, 0.02, 0.28, 2.67, -0.11, 0.02, 0.05, 42.22
258032, 541181585, 546144702, 0.28, -0.14, 1.23, -0.26, 0.22, 0.03, 42.22
258033, 541183569, 546146686, -0.41, -0.77, 0.93, -0.11, 0.37, -0.01, 42.23
258034, 541185583, 546148700, 0.20, -0.47, 1.79, 0.25, 0.08, -0.03, 42.22
258035, 541187567, 546150684, -0.23, 0.06, -1.50, 0.21, -0.05, -0.03, 42.22
258036, 541189581, 546152698, 0.17, 0.88, 2.54, 0.39, -0.37, 0.01, 42.21
258037, 541191565, 546154682, 0.41, 0.54, -0.73, 0.19, -0.14, 0.03, 42.18
258038, 541193580, 546156697, 0.13, 0.38, 2.82, -0.11, 0.03, 0.03, 42.23
258039, 541195563, 546158680, 0.09, -0.28, 1.27, -0.25, 0.29, 0.01, 42.20
258040, 541197578, 546160695, -0.28, -0.94, 1.03, -0.16, 0.46, -0.03, 42.20
258041, 541199562, 546162679, 0.01, -0.53, 1.08, 0.21, 0.07, -0.04, 42.17
258042, 541201576, 546164693, -0.15, 0.15, -0.81, 0.30, -0.19, -0.02, 42.24
258043, 541203560, 546166677, 0.18, 0.80, 2.51, 0.46, -0.44, 0.03, 42.18
258044, 541205574, 546168691, 0.29, 0.61, -0.84, 0.12, -0.06, 0.05, 42.19
258045, 541207558, 546170675, 0.31, 0.38, 2.98, -0.12, 0.16, 0.04, 42.23
258046, 541209572, 546172689, 0.10, -0.44, 1.00, -0.23, 0.31, 0.01, 42.23
258047, 541211587, 546174704, -0.17, -0.84, 1.66, -0.13, 0.35, -0.03, 42.23
258048, 541213571, 546176688, -0.16, -0.43, 0.30, 0.22, -0.01, -0.04, 42.24
258049, 541215585, 546178702, 0.03, 0.21, -0.45, 0.38, -0.19, -0.03, 42.22
258050, 541217569, 546180686, -0.01, 0.76, 1.96, 0.44, -0.38, 0.02, 42.26
258051, 541219583, 546182700, 0.27, 0.70, -0.13, 0.01, 0.03, 0.03, 42.19
258052, 541221567, 546184684, 0.19, 0.16, 2.74, -0.20, 0.19, 0.03, 42.24
258053, 541223582, 546186699, 0.13, -0.67, 0.75, -0.18, 0.23, 0.01, 42.24
258054, 541225565, 546188682, -0.21, -0.78, 2.33, 0.01, 0.19, -0.01, 42.25
258055, 541227580, 546190697, -0.18, -0.22, -0.07, 0.24, -0.02, -0.02, 42.22
258056, 541229564, 546192681, 0.16, 0.47, -0.22, 0.41, -0.11, -0.01, 42.26
258057, 541231578, 546194695, -0.05, 0.73, 1.12, 0.40, -0.32, 0.02, 42.21
258058, 541233562, 546196679, 0.49, 0.74, 0.59, -0.03, 0.01, 0.00, 42.20
258059, 541235576, 546198693, 0.10, -0.01, 2.76, -0.29, 0.12, -0.01, 42.23
258060, 541237560, 546200677, 0.16, -0.77, 0.76, -0.17, 0.24, -0.01, 42.27
258061, 541239574, 546202691, -0.39, -0.80, 2.33, 0.09, 0.19, 0.00, 42.24
258062, 541241589, 546204706, -0.24, -0.26, -0.81, 0.26, 0.07, -0.00, 42.20
258063, 541243573, 546206690, 0.11, 0.72, 0.55, 0.41, -0.09, -0.01, 42.24
258064, 541245587, 546208704, 0.08, 0.64, 0.53, 0.32, -0.41, 0.01, 42.26
258065, 541247571, 546210688, 0.56, 0.73, 1.43, -0.02, -0.14, -0.01, 42.29
258066, 541249585, 546212702, 0.08, -0.07, 2.57, -0.25, 0.06, -0.01, 42.28
258067, 541251569, 546214686, 0.25, -0.77, 0.41, -0.15, 0.39, -0.01, 42.27
258068, 541253583, 546216700, -0.50, -0.84, 2.05, 0.09, 0.24, 0.01, 42.21
258069, 541255567, 546218684, -0.04, -0.16, -0.39, 0.26, 0.01, -0.00, 42.23
258070, 541257582, 546220699, 0.11, 0.69, -0.06, 0.29, -0.35, 0.02, 42.21
258071, 541259566, 546222683, 0.43, 0.64, 1.86, -0.00, -0.06, -0.01, 42.21
258072, 541261580, 546224697, 0.00, -0.12, 2.52, -0.24, 0.10, -0.04, 42.20
258073, 541263564, 546226681, 0.14, -0.86, 0.42, -0.21, 0.40, -0.04, 42.21
258074, 541265578, 546228695, -0.39, -0.83, 1.76, 0.09, 0.11, -0.01, 42.20
258075, 541267562, 546230679, 0.10, -0.19, -0.26, 0.34, -0.14, 0.01, 42.24
258076, 541269576, 546232693, -0.10, 0.89, 1.09, 0.41, -0.26, 0.05, 42.26
258077, 541271560, 546234677, 0.29, 0.94, -0.37, 0.26, -0.19, 0.06, 42.26
258078, 541273575, 546236692, 0.28, 0.55, 1.93, -0.02, 0.04, 0.01, 42.23
258079, 541275558, 546238675, 0.06, -0.29, 2.69, -0.27, 0.11, -0.04, 42.28
258080, 541277573, 546240690, 0.07, -0.96, 0.32, -0.27, 0.33, -0.07, 42.28
258081, 541279587, 546242704, -0.34, -0.90, 1.44, 0.12, -0.01, -0.03, 42.25
258082, 541281571, 546244688, 0.14, -0.10, 0.09, 0.44, -0.20, 0.01, 42.21
258083, 541283585, 546246702, -0.26, 1.01, 0.85, 0.43, -0.24, 0.06, 42.19
258084, 541285569, 546248686, 0.41, 1.17, -0.13, 0.23, -0.06, 0.04, 42.21
258085, 541287584, 546250701, 0.21, 0.46, 1.78, -0.07, 0.01, -0.01, 42.23
258086, 541289568, 546252685, 0.20, -0.50, 2.83, -0.28, -0.01, -0.05, 42.26
258087, 541291582, 546254699, -0.04, -1.03, 0.42, -0.29, 0.24, -0.06, 42.22
258088, 541293566, 546256683, -0.31, -1.01, 0.90, 0.17, -0.01, -0.01, 42.22
258089, 541295580, 546258697, 0.11, 0.03, 0.43, 0.52, -0.15, 0.05, 42.23
258090, 541297564, 546260681, -0.30, 0.99, 0.45, 0.42, -0.20, 0.09, 42.21
258091, 541299578, 546262695, 0.51, 1.37, 0.61, 0.18, -0.03, 0.02, 42.22
258092, 541301562, 546264679, 0.32, 0.42, 1.88, -0.14, -0.04, -0.04, 42.16
258093, 541303577, 546266694, 0.25, -0.59, 2.43, -0.23, -0.02, -0.09, 42.22
258094, 541305560, 546268677, -0.29, -1.07, 0.54, -0.25, 0.22, -0.09, 42.17
258095, 541307575, 546270692, -0.32, -1.00, 0.28, 0.22, 0.04, -0.03, 42.18
258096, 541309559, 546272676, 0.03, 0.20, 0.70, 0.52, -0.19, 0.04, 42.25
258097, 541311573, 546274690, -0.04, 0.86, 0.31, 0.39, -0.32, 0.10, 42.26
258098, 541313587, 546276704, 0.58, 1.30, 1.24, 0.14, -0.14, 0.06, 42.24
258099, 541315571, 546278688, 0.30, 0.31, 1.96, -0.16, -0.00, 0.02, 42.23
258100, 541317586, 546280703, 0.18, -0.52, 2.21, -0.17, 0.17, -0.03, 42.21
258101, 541319570, 546282687, -0.51, -1.02, 0.03, -0.19, 0.32, -0.07, 42.23
258102, 541321584, 546284701, -0.31, -0.77, 0.55, 0.24, 0.07, -0.08, 42.24
258103, 541323568, 546286685, -0.07, 0.29, 0.65, 0.46, -0.33, -0.04, 42.23
258104, 541325582, 546288699, 0.14, 0.67, 0.22, 0.38, -0.51, 0.01, 42.20
258105, 541327566, 546290683, 0.71, 1.19, 1.83, 0.15, -0.30, 0.03, 42.20
258106, 541329580, 546292697, 0.38, 0.18, 1.84, -0.15, 0.06, 0.04, 42.22
258107, 541331564, 546294681, 0.09, -0.44, 1.78, -0.19, 0.40, 0.02, 42.26
258108, 541333579, 546296696, -0.57, -0.91, 0.12, -0.13, 0.41, -0.01, 42.21
258109, 541335562, 546298679, -0.25, -0.60, 0.75, 0.26, 0.03, -0.04, 42.24
258110, 541337577, 546300694, -0.15, 0.25, 0.43, 0.41, -0.46, -0.02, 42.22
258111, 541339561, 546302678, 0.24, 0.69, 0.48, 0.36, -0.55, -0.00, 42.25
258112, 541341575, 546304692, 0.59, 0.97, 1.81, 0.17, -0.29, 0.00, 42.22
258113, 541343559, 546306676, 0.39, 0.23, 2.14, -0.12, 0.14, 0.01, 42.24
258114, 541345573, 546308690, -0.09, -0.50, 1.01, -0.22, 0.46, -0.02, 42.27
258115, 541347588, 546310705, -0.42, -0.89, 0.54, -0.09, 0.32, -0.04, 42.22
258116, 541349572, 546312689, -0.18, -0.48, 0.96, 0.26, -0.12, -0.05, 42.23
258117, 541351586, 546314703, -0.16, 0.18, 0.18, 0.40, -0.49, 0.00, 42.25
258118, 541353570, 546316687, 0.39, 0.74, 0.57, 0.38, -0.47, 0.04, 42.24
258119, 541355584, 546318701, 0.55, 0.85, 1.89, 0.14, -0.20, 0.05, 42.23
258120, 541357568, 546320685, 0.30, 0.27, 1.90, -0.13, 0.22, 0.04, 42.18
258121, 541359582, 546322699, -0.23, -0.37, 1.05, -0.23, 0.50, -0.02, 42.23
258122, 541361566, 546324683, -0.39, -0.92, 0.30, -0.01, 0.28, -0.07, 42.24
258123, 541363581, 546326698, -0.30, -0.40, 1.35, 0.26, -0.27, -0.09, 42.21
258124, 541365564, 546328681, -0.02, 0.12, -0.14, 0.35, -0.58, -0.05, 42.18
258125, 541367579, 546330696, 0.54, 0.64, 0.99, 0.38, -0.47, 0.01, 42.22
258126, 541369563, 546332680, 0.59, 0.66, 1.67, 0.14, -0.19, 0.07, 42.20
258127, 541371577, 546334694, 0.27, 0.16, 2.13, -0.12, 0.25, 0.10, 42.21
258128, 541373561, 546336678, -0.26, -0.28, 1.09, -0.22, 0.58, 0.04, 42.21
258129, 541375575, 546338692, -0.26, -0.72, -0.11, 0.03, 0.38, -0.04, 42.25
258130, 541377559, 546340676, -0.40, -0.15, 1.27, 0.31, -0.31, -0.08, 42.28
258131, 541379573, 546342690, -0.02, 0.22, -0.01, 0.36, -0.66, -0.09, 42.23
258132, 541381557, 546344674, 0.47, 0.56, 1.12, 0.31, -0.48, -0.06, 42.23
258133, 541383572, 546346689, 0.57, 0.40, 1.62, 0.06, -0.17, 0.02, 42.25
258134, 541385586, 546348703, 0.24, -0.14, 1.98, -0.13, 0.28, 0.08, 42.24
258135, 541387570, 546350687, -0.34, -0.36, 1.41, -0.16, 0.55, 0.06, 42.26
258136, 541389584, 546352701, -0.26, -0.65, -0.58, 0.07, 0.38, 0.01, 42.26
258137, 541391568, 546354685, -0.28, 0.13, 1.77, 0.36, -0.35, -0.03, 42.27
258138, 541393583, 546356700, 0.07, 0.34, -0.31, 0.37, -0.66, -0.05, 42.27
258139, 541395566, 546358683, 0.52, 0.69, 1.64, 0.26, -0.44, -0.05, 42.27
258140, 541397581, 546360698, 0.66, 0.36, 1.49, -0.02, -0.11, 0.01, 42.27
258141, 541399565, 546362682, 0.10, -0.33, 1.27, -0.12, 0.32, 0.05, 42.25
258142, 541401579, 546364696, -0.38, -0.48, 1.54, -0.08, 0.46, 0.03, 42.23
258143, 541403563, 546366680, -0.21, -0.63, -0.49, 0.07, 0.35, -0.01, 42.22
258144, 541405669, 546368786, -0.36, 0.19, 2.01, 0.35, -0.34, -0.03, 42.24
258145, 541407561, 546370678, 0.19, 0.39, -0.31, 0.38, -0.59, -0.04, 42.24
258146, 541409575, 546372692, 0.57, 0.87, 2.18, 0.24, -0.39, -0.03, 42.21
258147, 541411559, 546374676, 0.49, 0.29, 0.95, -0.05, -0.07, 0.03, 42.18
258148, 541413574, 546376691, 0.02, -0.26, 1.08, -0.10, 0.38, 0.05, 42.22
258149, 541415558, 546378675, -0.32, -0.51, 1.55, -0.05, 0.42, 0.03, 42.19
258150, 541417572, 546380689, -0.16, -0.57, -0.37, 0.02, 0.29, -0.02, 42.23
258151, 541419586, 546382703, -0.34, 0.12, 2.05, 0.33, -0.40, -0.03, 42.21
258152, 541421570, 546384687, 0.31, 0.26, -0.20, 0.40, -0.56, -0.04, 42.20
258153, 541423585, 546386702, 0.49, 0.74, 2.25, 0.25, -0.34, -0.02, 42.24
258154, 541425568, 546388685, 0.44, 0.34, 0.58, -0.06, 0.03, 0.03, 42.27
258155, 541427583, 546390700, -0.08, -0.23, 0.98, -0.09, 0.43, 0.03, 42.27
258156, 541429567, 546392684, -0.33, -0.43, 1.90, -0.02, 0.32, 0.01, 42.23
258157, 541431581, 546394698, -0.12, -0.46, -0.32, 0.05, 0.17, -0.04, 42.23
258158, 541433565, 546396682, -0.27, 0.15, 2.02, 0.35, -0.42, -0.04, 42.25
258159, 541435579, 546398696, 0.40, 0.13, -0.14, 0.39, -0.46, -0.03, 42.21
258160, 541437563, 546400680, 0.42, 0.71, 2.35, 0.18, -0.27, 0.01, 42.24
258161, 541439577, 546402694, 0.39, 0.22, 0.59, -0.06, 0.09, 0.06, 42.19
258162, 541441561, 546404678, -0.13, -0.30, 0.67, -0.07, 0.45, 0.04, 42.22
258163, 541443576, 546406693, -0.24, -0.44, 1.54, 0.02, 0.23, 0.01, 42.24
258164, 541445560, 546408677, -0.24, 0.14, 1.97, 0.35, -0.40, -0.04, 42.23
258165, 541447574, 546410691, 0.52, 0.34, -0.01, 0.41, -0.31, -0.05, 42.23
258166, 541449558, 546412675, 0.20, 0.68, 2.20, 0.15, -0.22, -0.01, 42.23
258167, 541451572, 546414689, 0.37, 0.15, 0.52, -0.05, 0.06, 0.03, 42.23
258168, 541453587, 546416704, -0.14, -0.41, 0.94, -0.09, 0.38, 0.02, 42.22
258169, 541455570, 546418687, -0.20, -0.62, 0.92, 0.03, 0.22, 0.02, 42.24
258170, 541457585, 546420702, -0.20, -0.24, 0.52, 0.13, 0.01, 0.00, 42.24
258171, 541459569, 546422686, -0.12, 0.13, 1.88, 0.38, -0.38, 0.00, 42.24
258172, 541461583, 546424700, 0.64, 0.62, 0.43, 0.42, -0.22, -0.02, 42.20
258173, 541463567, 546426684, 0.26, 0.77, 1.78, 0.11, -0.17, 0.00, 42.24
258174, 541465581, 546428698, 0.36, 0.13, 0.30, -0.02, 0.07, 0.01, 42.27
258175, 541467565, 546430682, -0.25, -0.37, 1.72, -0.14, 0.33, -0.02, 42.22
258176, 541469579, 546432696, -0.19, -0.78, 0.29, 0.00, 0.26, -0.03, 42.24
258177, 541471563, 546434680, -0.35, -0.45, 0.62, 0.18, 0.01, -0.02, 42.24
258178, 541473578, 546436695, -0.04, 0.05, 2.14, 0.43, -0.39, 0.01, 42.21
258179, 541475562, 546438679, 0.56, 0.63, 0.44, 0.36, -0.20, 0.02, 42.20
258180, 541477667, 546440784, 0.37, 0.80, 1.72, 0.09, -0.15, 0.05, 42.19
258181, 541479560, 546442677, 0.39, 0.29, 0.10, 0.07, 0.11, 0.03, 42.22
258182, 541481574, 546444691, -0.35, -0.18, 1.98, -0.09, 0.32, -0.02, 42.22
258183, 541483558, 546446675, -0.12, -0.79, -0.38, -0.04, 0.29, -0.06, 42.20
258184, 541485572, 546448689, -0.27, -0.42, 1.13, 0.13, -0.06, -0.06, 42.23
258185, 541487587, 546450704, 0.04, -0.22, 2.03, 0.43, -0.46, -0.01, 42.21
258186, 541489571, 546452688, 0.45, 0.56, 0.81, 0.28, -0.19, 0.02, 42.21
258187, 541491585, 546454702, 0.30, 0.68, 1.38, 0.10, -0.02, 0.07, 42.23
258188, 541493569, 546456686, 0.27, 0.38, 0.25, 0.14, 0.25, 0.06, 42.21
258189, 541495583, 546458700, -0.36, 0.02, 1.84, -0.06, 0.31, -0.01, 42.21
258190, 541497567, 546460684, -0.12, -0.64, -0.68, -0.06, 0.25, -0.09, 42.26
258191, 541499581, 546462698, -0.17, -0.31, 1.62, 0.12, -0.22, -0.09, 42.25
258192, 541501565, 546464682, 0.28, -0.39, 1.93, 0.42, -0.54, -0.02, 42.18
258193, 541503580, 546466697, 0.35, 0.50, 0.83, 0.23, -0.18, 0.05, 42.22
258194, 541505563, 546468680, 0.27, 0.66, 1.36, 0.13, 0.15, 0.11, 42.25
258195, 541507578, 546470695, 0.10, 0.39, -0.08, 0.12, 0.42, 0.08, 42.26
258196, 541509562, 546472679, -0.43, -0.02, 2.08, -0.05, 0.29, -0.01, 42.22
258197, 541511576, 546474693, -0.11, -0.49, -0.41, -0.07, 0.09, -0.11, 42.22
258198, 541513560, 546476677, -0.10, -0.43, 1.91, 0.15, -0.36, -0.11, 42.26
258199, 541515574, 546478691, 0.28, -0.41, 1.58, 0.44, -0.49, -0.03, 42.25
258200, 541517558, 546480675, 0.27, 0.48, 0.44, 0.21, -0.11, 0.06, 42.24
258201, 541519573, 546482690, 0.28, 0.77, 1.77, 0.16, 0.25, 0.11, 42.25
258202, 541521587, 546484704, 0.04, 0.40, -0.28, 0.05, 0.48, 0.07, 42.27
258203, 541523571, 546486688, -0.24, -0.01, 2.00, -0.03, 0.22, -0.02, 42.21
258204, 541525585, 546488702, -0.18, -0.54, -0.12, -0.07, -0.07, -0.11, 42.26
258205, 541527569, 546490686, -0.03, -0.53, 1.98, 0.20, -0.41, -0.10, 42.28
258206, 541529583, 546492700, 0.31, -0.31, 1.30, 0.42, -0.39, -0.01, 42.24
258207, 541531567, 546494684, 0.29, 0.46, 0.50, 0.17, -0.04, 0.08, 42.21
258208, 541533582, 546496699, 0.21, 0.83, 1.56, 0.19, 0.25, 0.12, 42.22
258209, 541535565, 546498682, -0.05, 0.43, -0.03, -0.01, 0.44, 0.06, 42.24
258210, 541537580, 546500697, -0.18, -0.15, 1.71, -0.01, 0.17, -0.04, 42.25
258211, 541539564, 546502681, -0.14, -0.51, 0.04, -0.07, -0.17, -0.13, 42.24
258212, 541541578, 546504695, 0.14, -0.60, 2.11, 0.21, -0.41, -0.11, 42.27
258213, 541543562, 546506679, 0.29, -0.18, 1.44, 0.36, -0.35, -0.00, 42.28
258214, 541545576, 546508693, 0.19, 0.34, 0.13, 0.17, 0.00, 0.10, 42.25
258215, 541547560, 546510677, 0.14, 0.87, 1.66, 0.23, 0.29, 0.14, 42.25
258216, 541549575, 546512692, -0.12, 0.41, -0.03, -0.06, 0.46, 0.06, 42.23
258217, 541551558, 546514675, -0.24, -0.10, 1.39, -0.02, 0.18, -0.06, 42.24
258218, 541553573, 546516690, -0.06, -0.39, 0.68, -0.05, -0.26, -0.14, 42.24
258219, 541555587, 546518704, 0.20, -0.69, 2.02, 0.20, -0.47, -0.12, 42.21
258220, 541557571, 546520688, 0.21, -0.13, 1.04, 0.29, -0.34, -0.00, 42.24
258221, 541559585, 546522702, 0.29, 0.35, 0.91, 0.20, 0.05, 0.10, 42.24
258222, 541561569, 546524686, 0.02, 0.66, 0.55, 0.19, 0.33, 0.14, 42.20
258223, 541563584, 546526701, -0.10, 0.49, 0.75, -0.09, 0.42, 0.06, 42.22
258224, 541565567, 546528684, -0.23, -0.11, 0.78, -0.02, 0.11, -0.06, 42.22
258225, 541567582, 546530699, -0.02, -0.40, 1.17, 0.01, -0.35, -0.12, 42.24
258226, 541569566, 546532683, 0.23, -0.57, 2.26, 0.24, -0.48, -0.10, 42.19
258227, 541571580, 546534697, 0.19, -0.02, 0.85, 0.20, -0.23, -0.00, 42.21
258228, 541573564, 546536681, 0.24, 0.24, 0.39, 0.17, 0.16, 0.09, 42.26
258229, 541575578, 546538695, -0.05, 0.61, 0.75, 0.16, 0.29, 0.12, 42.25
258230, 541577562, 546540679, -0.04, 0.41, 1.09, -0.04, 0.28, 0.04, 42.25
258231, 541579577, 546542694, -0.16, -0.17, 0.43, -0.02, 0.03, -0.07, 42.24
258232, 541581560, 546544677, 0.19, -0.28, 1.74, 0.05, -0.35, -0.11, 42.23
258233, 541583575, 546546692, 0.08, -0.43, 1.74, 0.20, -0.41, -0.07, 42.25
258234, 541585559, 546548676, 0.18, 0.04, 1.22, 0.16, -0.10, 0.02, 42.21
258235, 541587573, 546550690, 0.15, 0.21, 0.25, 0.16, 0.24, 0.08, 42.24
258236, 541589587, 546552704, -0.13, 0.48, 0.40, 0.09, 0.21, 0.09, 42.23
258237, 541591571, 546554688, -0.03, 0.23, 1.19, -0.01, 0.07, 0.01, 42.18
258238, 541593586, 546556703, -0.11, -0.25, 0.65, -0.01, -0.08, -0.07, 42.28
258239, 541595569, 546558686, 0.34, -0.17, 1.98, 0.09, -0.25, -0.10, 42.21
258240, 541597584, 546560701, -0.03, -0.27, 1.30, 0.18, -0.27, -0.05, 42.19
258241, 541599568, 546562685, 0.18, 0.24, 1.39, 0.16, -0.06, 0.02, 42.25
258242, 541601582, 546564699, 0.04, 0.27, 0.14, 0.11, 0.20, 0.06, 42.21
258243, 541603566, 546566683, -0.12, 0.33, 0.33, 0.04, 0.12, 0.05, 42.20
258244, 541605580, 546568697, 0.01, 0.11, 1.20, 0.00, -0.05, -0.01, 42.23
258245, 541607564, 546570681, 0.05, -0.37, 0.96, -0.02, -0.14, -0.06, 42.22
258246, 541609578, 546572695, 0.26, -0.20, 1.85, 0.09, -0.18, -0.06, 42.21
258247, 541611562, 546574679, -0.09, -0.16, 1.27, 0.15, -0.14, 0.00, 42.22
258248, 541613577, 546576694, 0.25, 0.27, 1.50, 0.18, -0.02, 0.05, 42.21
258249, 541615561, 546578678, -0.05, 0.46, 0.05, 0.08, 0.14, 0.06, 42.25
258250, 541617575, 546580692, 0.04, 0.29, 0.24, 0.03, 0.05, 0.01, 42.28
258251, 541619559, 546582676, -0.07, -0.01, 0.89, 0.02, -0.12, -0.05, 42.27
258252, 541621573, 546584690, 0.12, -0.36, 1.43, -0.02, -0.15, -0.08, 42.22
258253, 541623588, 546586705, 0.24, -0.21, 1.90, 0.04, -0.10, -0.06, 42.25
258254, 541625571, 546588688, -0.10, -0.24, 1.28, 0.11, -0.04, 0.02, 42.20
258255, 541627586, 546590703, 0.08, 0.27, 1.38, 0.20, 0.02, 0.07, 42.24
258256, 541629570, 546592687, -0.19, 0.51, 0.05, 0.06, 0.12, 0.06, 42.21
258257, 541631584, 546594701, 0.10, 0.27, -0.01, 0.04, -0.01, 0.00, 42.23
258258, 541633568, 546596685, 0.41, -0.22, 2.24, -0.03, -0.27, -0.08, 42.23
258259, 541635582, 546598699, 0.19, -0.25, 1.42, 0.00, -0.06, -0.04, 42.20
258260, 541637566, 546600683, -0.01, -0.15, 1.56, 0.12, 0.13, 0.04, 42.23
258261, 541639580, 546602697, -0.08, 0.26, 1.00, 0.17, 0.15, 0.08, 42.23
258262, 541641564, 546604681, -0.26, 0.48, -0.10, 0.01, 0.11, 0.04, 42.26
258263, 541643579, 546606696, 0.00, 0.16, 0.21, 0.03, -0.13, -0.04, 42.27
258264, 541645593, 546608710, 0.18, -0.02, 0.83, 0.04, -0.37, -0.08, 42.25
258265, 541647577, 546610694, 0.40, -0.31, 2.15, 0.00, -0.31, -0.08, 42.16
258266, 541649561, 546612678, 0.07, -0.15, 1.48, -0.02, 0.00, -0.01, 42.24
258267, 541651575, 546614692, 0.01, -0.06, 1.87, 0.11, 0.27, 0.06, 42.22
258268, 541653559, 546616676, -0.17, 0.28, 0.42, 0.13, 0.20, 0.09, 42.19
258269, 541655573, 546618690, -0.22, 0.38, -0.00, 0.01, 0.02, 0.04, 42.19
258270, 541657588, 546620705, 0.07, 0.09, 0.34, 0.03, -0.26, -0.05, 42.21
258271, 541659572, 546622689, 0.39, -0.09, 0.97, 0.04, -0.39, -0.08, 42.25
258272, 541661586, 546624703, 0.34, -0.23, 2.21, 0.01, -0.27, -0.06, 42.28
258273, 541663570, 546626687, 0.10, -0.06, 1.31, -0.02, 0.12, 0.01, 42.27
258274, 541665584, 546628701, -0.10, 0.08, 1.96, 0.13, 0.38, 0.05, 42.18
258275, 541667568, 546630685, -0.27, 0.21, -0.04, 0.04, 0.20, 0.06, 42.22
258276, 541669582, 546632699, -0.09, 0.28, 0.42, -0.02, -0.12, -0.00, 42.19
258277, 541671566, 546634683, -0.01, -0.07, 0.58, 0.01, -0.41, -0.06, 42.21
258278, 541673581, 546636698, 0.54, -0.19, 0.96, 0.08, -0.35, -0.06, 42.23
258279, 541675565, 546638682, 0.22, -0.21, 1.75, 0.05, -0.17, -0.01, 42.21
258280, 541677579, 546640696, 0.20, 0.11, 1.38, 0.00, 0.22, 0.06, 42.23
258281, 541679563, 546642680, -0.10, 0.30, 2.22, 0.10, 0.39, 0.08, 42.24
258282, 541681577, 546644694, -0.26, 0.21, -0.54, -0.05, 0.20, 0.04, 42.21
258283, 541683561, 546646678, -0.13, 0.23, 0.80, 0.01, -0.17, -0.05, 42.21
258284, 541685575, 546648692, -0.01, -0.22, 0.58, -0.01, -0.47, -0.11, 42.24
258285, 541687559, 546650676, 0.58, -0.40, 0.94, 0.06, -0.30, -0.10, 42.21
258286, 541689574, 546652691, 0.08, -0.20, 1.57, 0.02, -0.11, -0.00, 42.25
258287, 541691557, 546654674, 0.28, 0.19, 1.83, 0.07, 0.24, 0.08, 42.24
258288, 541693572, 546656689, -0.20, 0.41, 2.09, 0.10, 0.35, 0.12, 42.24
258289, 541695586, 546658703, -0.23, 0.31, -0.62, -0.06, 0.22, 0.06, 42.23
258290, 541697570, 546660687, -0.13, 0.25, 0.34, 0.04, -0.13, -0.05, 42.23
258291, 541699584, 546662701, 0.11, -0.22, 1.03, -0.01, -0.45, -0.12, 42.21
258292, 541701568, 546664685, 0.58, -0.50, 0.96, 0.02, -0.26, -0.11, 42.17
258293, 541703583, 546666700, 0.10, -0.28, 1.67, -0.03, -0.11, -0.01, 42.22
258294, 541705567, 546668684, 0.26, 0.01, 1.64, 0.11, 0.24, 0.08, 42.21
258295, 541707581, 546670698, -0.25, 0.49, 1.93, 0.12, 0.33, 0.13, 42.24
258296, 541709565, 546672682, -0.16, 0.42, -0.25, -0.01, 0.24, 0.05, 42.21
258297, 541711579, 546674696, -0.11, 0.34, -0.01, 0.04, -0.12, -0.06, 42.20
258298, 541713563, 546676680, 0.26, -0.12, 1.45, -0.00, -0.48, -0.12, 42.21
258299, 541715577, 546678694, 0.43, -0.56, 0.68, -0.01, -0.27, -0.10, 42.24
258300, 541717561, 546680678, 0.10, -0.39, 1.99, -0.04, -0.03, 0.00, 42.24
258301, 541719576, 546682693, 0.12, -0.14, 1.08, 0.10, 0.36, 0.09, 42.26
258302, 541721559, 546684676, -0.37, 0.47, 1.48, 0.08, 0.33, 0.14, 42.21
258303, 541723574, 546686691, -0.10, 0.53, 0.55, 0.06, 0.16, 0.04, 42.19
258304, 541725558, 546688675, 0.03, 0.36, -0.08, 0.02, -0.21, -0.07, 42.24
258305, 541727572, 546690689, 0.42, -0.08, 1.50, 0.02, -0.49, -0.13, 42.23
258306, 541729586, 546692703, 0.30, -0.42, 0.79, -0.01, -0.25, -0.09, 42.20
258307, 541731570, 546694687, 0.14, -0.33, 2.18, 0.01, 0.12, 0.00, 42.23
258308, 541733585, 546696702, -0.05, -0.17, 0.58, 0.07, 0.49, 0.09, 42.23
258309, 541735568, 546698685, -0.40, 0.21, 1.12, 0.02, 0.28, 0.12, 42.21
258310, 541737583, 546700700, -0.06, 0.56, 1.44, 0.09, -0.01, 0.03, 42.19
258311, 541739567, 546702684, 0.14, 0.19, -0.32, 0.01, -0.24, -0.06, 42.23
258312, 541741581, 546704698, 0.52, 0.01, 1.43, 0.11, -0.35, -0.09, 42.20
258313, 541743565, 546706682, 0.12, -0.16, 0.58, 0.02, -0.14, -0.06, 42.20
258314, 541745579, 546708696, 0.09, -0.14, 2.24, 0.04, 0.22, -0.01, 42.18
258315, 541747563, 546710680, -0.09, -0.06, 0.65, -0.01, 0.46, 0.05, 42.20
258316, 541749578, 546712695, -0.26, -0.05, 1.10, -0.03, 0.17, 0.07, 42.23
258317, 541751561, 546714678, -0.05, 0.34, 1.75, 0.10, -0.16, 0.02, 42.24
258318, 541753576, 546716693, 0.23, -0.04, -0.30, 0.04, -0.21, -0.04, 42.25
258319, 541755560, 546718677, 0.32, 0.09, 1.17, 0.18, -0.18, -0.04, 42.24
258320, 541757574, 546720691, 0.18, 0.06, 0.69, 0.06, -0.01, -0.02, 42.24
258321, 541759558, 546722675, 0.08, 0.04, 2.22, 0.05, 0.26, -0.00, 42.23
258322, 541761572, 546724689, -0.16, -0.06, 0.36, -0.14, 0.33, 0.03, 42.19
258323, 541763587, 546726704, -0.05, -0.18, 1.26, 0.00, 0.05, 0.04, 42.23
258324, 541765570, 546728687, -0.10, 0.02, 1.68, 0.15, -0.21, -0.00, 42.22
258325, 541767585, 546730702, 0.36, -0.08, -0.36, 0.09, -0.06, -0.04, 42.27
258326, 541769569, 546732686, 0.27, 0.41, 1.18, 0.17, -0.07, -0.03, 42.19
258327, 541771583, 546734700, 0.21, 0.01, 0.58, 0.07, -0.01, -0.01, 42.23
258328, 541773567, 546736684, -0.04, 0.17, 2.76, 0.06, 0.18, 0.01, 42.26
258329, 541775581, 546738698, -0.16, -0.07, -0.04, -0.18, 0.27, 0.05, 42.23
258330, 541777565, 546740682, -0.17, -0.26, 1.18, 0.04, 0.12, 0.04, 42.20
258331, 541779580, 546742697, -0.12, -0.13, 1.57, 0.13, -0.15, 0.01, 42.23
258332, 541781563, 546744680, 0.45, -0.05, -0.18, 0.08, -0.02, -0.04, 42.24
258333, 541783578, 546746695, 0.19, 0.43, 1.26, 0.17, -0.13, -0.03, 42.23
258334, 541785562, 546748679, 0.42, 0.18, 0.72, 0.17, -0.04, -0.01, 42.21
258335, 541787576, 546750693, -0.13, 0.19, 2.66, 0.07, 0.19, 0.01, 42.22
258336, 541789560, 546752677, -0.17, -0.11, -0.19, -0.21, 0.35, 0.02, 42.28
258337, 541791574, 546754691, -0.31, -0.28, 1.16, 0.01, 0.18, 0.00, 42.25
258338, 541793558, 546756675, -0.09, -0.29, 1.57, 0.13, -0.19, -0.03, 42.24
258339, 541795572, 546758689, 0.39, -0.03, 0.16, 0.11, -0.12, -0.04, 42.22
258340, 541797587, 546760704, 0.14, 0.45, 1.16, 0.20, -0.20, -0.01, 42.20
258341, 541799571, 546762688, 0.51, 0.37, 0.69, 0.23, 0.03, 0.02, 42.24
258342, 541801585, 546764702, -0.23, 0.25, 2.25, 0.03, 0.22, 0.04, 42.24
258343, 541803569, 546766686, 0.06, -0.12, 0.24, -0.22, 0.36, 0.03, 42.22
258344, 541805583, 546768700, -0.34, -0.40, 1.32, -0.04, 0.17, -0.00, 42.22
258345, 541807567, 546770684, 0.18, -0.41, 1.47, 0.15, -0.21, -0.03, 42.23
258346, 541809582, 546772699, 0.20, -0.12, -0.15, 0.14, -0.13, -0.04, 42.22
258347, 541811565, 546774682, 0.10, 0.49, 1.21, 0.25, -0.13, -0.01, 42.22
258348, 541813580, 546776697, 0.52, 0.61, 0.68, 0.27, 0.14, 0.00, 42.21
258349, 541815564, 546778681, -0.34, 0.28, 2.04, -0.02, 0.20, 0.01, 42.28
258350, 541817578, 546780695, 0.16, -0.10, 0.65, -0.22, 0.25, 0.01, 42.26
258351, 541819562, 546782679, -0.43, -0.64, 1.27, -0.09, 0.09, -0.01, 42.24
258352, 541821576, 546784693, -0.00, -0.09, -0.03, 0.17, -0.07, 0.01, 42.21
258353, 541823560, 546786677, 0.30, 0.69, 1.50, 0.30, -0.12, 0.03, 42.24
258354, 541825574, 546788691, 0.38, 0.69, 0.42, 0.27, 0.14, 0.03, 42.23
258355, 541827558, 546790675, -0.25, 0.44, 2.15, -0.04, 0.17, 0.01, 42.19
258356, 541829573, 546792690, 0.12, -0.15, 0.40, -0.21, 0.22, -0.02, 42.24
258357, 541831587, 546794704, -0.48, -0.79, 1.79, -0.10, 0.07, -0.05, 42.24
258358, 541833571, 546796688, 0.28, -0.75, 0.71, 0.15, -0.06, -0.06, 42.22
258359, 541835585, 546798702, -0.02, -0.06, -0.00, 0.19, -0.11, -0.00, 42.22
258360, 541837569, 546800686, 0.42, 0.60, 1.45, 0.39, -0.19, 0.06, 42.18
258361, 541839583, 546802700, 0.16, 0.85, 0.66, 0.26, 0.16, 0.07, 42.16
258362, 541841567, 546804684, -0.10, 0.60, 2.42, -0.04, 0.29, 0.04, 42.24
258363, 541843582, 546806699, 0.01, -0.15, -0.19, -0.19, 0.32, -0.02, 42.26
258364, 541845566, 546808683, -0.44, -0.78, 2.45, -0.09, -0.02, -0.08, 42.23
258365, 541847580, 546810697, 0.30, -0.79, 0.10, 0.09, -0.19, -0.10, 42.23
258366, 541849564, 546812681, 0.01, -0.28, 0.24, 0.20, -0.25, -0.01, 42.23
258367, 541851578, 546814695, 0.52, 0.47, 1.37, 0.48, -0.22, 0.08, 42.28
258368, 541853562, 546816679, 0.04, 1.02, 1.02, 0.25, 0.25, 0.12, 42.24
258369, 541855576, 546818693, -0.03, 0.64, 1.99, -0.07, 0.46, 0.08, 42.20
258370, 541857560, 546820677, -0.16, -0.07, -0.32, -0.17, 0.35, -0.02, 42.23
258371, 541859575, 546822692, -0.24, -0.69, 2.99, -0.01, -0.19, -0.11, 42.23
258372, 541861558, 546824675, 0.30, -0.92, -0.40, 0.03, -0.32, -0.14, 42.26
258373, 541863573, 546826690, 0.05, -0.28, 0.42, 0.20, -0.30, -0.04, 42.23
258374, 541865587, 546828704, 0.48, 0.38, 0.92, 0.52, -0.15, 0.08, 42.23
258375, 541867571, 546830688, -0.11, 0.99, 1.72, 0.26, 0.32, 0.14, 42.25
258376, 541869585, 546832702, 0.02, 0.75, 1.99, -0.07, 0.52, 0.09, 42.21
258377, 541871569, 546834686, -0.28, -0.12, -0.75, -0.22, 0.36, -0.01, 42.21
258378, 541873584, 546836701, -0.22, -0.74, 3.51, 0.03, -0.32, -0.11, 42.24
258379, 541875568, 546838685, 0.27, -0.86, -0.72, 0.04, -0.40, -0.13, 42.22
258380, 541877582, 546840699, 0.14, -0.23, 0.63, 0.30, -0.31, -0.04, 42.24
258381, 541879566, 546842683, 0.47, 0.52, 0.33, 0.53, -0.10, 0.07, 42.23
258382, 541881580, 546844697, -0.11, 0.89, 1.76, 0.23, 0.29, 0.13, 42.23
258383, 541883564, 546846681, 0.12, 0.77, 2.76, -0.10, 0.43, 0.08, 42.27
258384, 541885578, 546848695, -0.31, -0.39, -0.92, -0.30, 0.36, -0.01, 42.26
258385, 541887562, 546850679, -0.03, -0.62, 3.41, 0.11, -0.25, -0.09, 42.22
258386, 541889577, 546852694, -0.03, -0.76, -1.23, 0.13, -0.38, -0.11, 42.24
258387, 541891560, 546854677, 0.00, -0.13, 0.68, 0.39, -0.29, -0.05, 42.25
258388, 541893575, 546856692, 0.47, 0.73, 0.64, 0.43, -0.11, 0.05, 42.25
258389, 541895559, 546858676, 0.04, 0.64, 1.63, 0.12, 0.17, 0.09, 42.23
258390, 541897573, 546860690, 0.25, 0.50, 2.91, -0.11, 0.23, 0.08, 42.24
258391, 541899587, 546862704, -0.33, -0.46, -0.37, -0.23, 0.31, 0.02, 42.20
258392, 541901571, 546864688, 0.03, -0.57, 3.05, 0.19, -0.12, -0.04, 42.18
258393, 541903586, 546866703, -0.16, -0.57, -1.95, 0.19, -0.22, -0.07, 42.22
258394, 541905570, 546868687, 0.07, 0.32, 1.55, 0.41, -0.26, -0.04, 42.23
258395, 541907584, 546870701, 0.47, 0.76, 0.19, 0.33, -0.18, 0.02, 42.24
258396, 541909568, 546872685, 0.05, 0.47, 1.88, 0.09, 0.03, 0.04, 42.24
258397, 541911582, 546874699, 0.12, 0.27, 2.44, -0.11, 0.11, 0.04, 42.25
258398, 541913566, 546876683, -0.18, -0.66, 0.44, -0.19, 0.29, 0.01, 42.26
258399, 541915580, 546878697, -0.01, -0.71, 2.10, 0.18, -0.05, -0.03, 42.31
258400, 541917564, 546880681, -0.08, -0.48, -1.66, 0.23, -0.19, -0.02, 42.21
258401, 541919579, 546882696, 0.22, 0.67, 2.33, 0.47, -0.33, 0.01, 42.23
258402, 541921562, 546884679, 0.25, 0.71, -0.86, 0.30, -0.18, 0.05, 42.27
258403, 541923577, 546886694, 0.04, 0.64, 2.82, 0.09, 0.08, 0.05, 42.24
258404, 541925561, 546888678, 0.07, 0.11, 1.71, -0.13, 0.18, 0.02, 42.22
258405, 541927575, 546890692, -0.18, -0.79, 1.24, -0.19, 0.26, -0.04, 42.21
258406, 541929559, 546892676, -0.07, -0.78, 1.06, 0.10, -0.14, -0.06, 42.18
258407, 541931573, 546894690, 0.15, -0.31, -1.09, 0.32, -0.33, -0.04, 42.20
258408, 541933588, 546896705, 0.19, 0.64, 2.27, 0.58, -0.46, 0.03, 42.20
258409, 541935572, 546898689, 0.14, 0.81, -0.86, 0.25, -0.05, 0.08, 42.25
258410, 541937586, 546900703, 0.05, 0.55, 2.88, -0.01, 0.27, 0.07, 42.20
258411, 541939570, 546902687, 0.13, -0.12, 1.25, -0.20, 0.24, 0.03, 42.26
258412, 541941584, 546904701, -0.16, -0.80, 1.77, -0.09, 0.08, -0.04, 42.29
258413, 541943568, 546906685, -0.12, -0.69, 0.63, 0.17, -0.26, -0.06, 42.24
258414, 541945582, 546908699, 0.25, -0.05, -0.93, 0.40, -0.28, -0.05, 42.25
258415, 541947566, 546910683, -0.03, 0.72, 1.57, 0.54, -0.40, 0.01, 42.21
258416, 541949581, 546912698, 0.24, 0.87, 0.26, 0.14, -0.00, 0.04, 42.25
258417, 541951564, 546914681, 0.07, 0.36, 3.18, -0.12, 0.21, 0.03, 42.24
258418, 541953579, 546916696, 0.08, -0.48, 0.05, -0.18, 0.19, 0.01, 42.24
258419, 541955563, 546918680, -0.31, -0.85, 2.63, 0.06, -0.06, -0.01, 42.25
258420, 541957577, 546920694, -0.12, -0.57, 0.10, 0.21, -0.28, -0.01, 42.23
258421, 541959561, 546922678, 0.34, 0.29, -0.69, 0.41, -0.18, -0.00, 42.28
258422, 541961575, 546924692, 0.03, 0.89, 1.13, 0.45, -0.36, 0.04, 42.26
258423, 541963559, 546926676, 0.45, 0.93, 0.91, 0.13, -0.04, 0.03, 42.22
258424, 541965573, 546928690, -0.09, 0.16, 3.38, -0.15, 0.12, 0.00, 42.23
258425, 541967557, 546930674, 0.05, -0.75, -0.41, -0.24, 0.25, -0.03, 42.21
258426, 541969572, 546932689, -0.34, -0.95, 2.60, 0.06, -0.04, -0.03, 42.25
258427, 541971586, 546934703, -0.08, -0.52, -0.26, 0.27, -0.29, -0.02, 42.28
258428, 541973570, 546936687, 0.18, 0.40, -0.09, 0.45, -0.25, 0.01, 42.24
258429, 541975584, 546938701, 0.20, 1.07, 0.92, 0.40, -0.39, 0.05, 42.21
258430, 541977568, 546940685, 0.51, 0.94, 1.13, 0.13, -0.04, 0.04, 42.24
258431, 541979583, 546942700, -0.11, 0.17, 3.24, -0.16, 0.12, 0.01, 42.23
258432, 541981566, 546944683, 0.10, -0.82, -0.19, -0.30, 0.34, -0.03, 42.27
258433, 541983581, 546946698, -0.34, -0.98, 2.18, 0.05, -0.08, -0.04, 42.20
258434, 541985565, 546948682, -0.03, -0.62, -0.57, 0.32, -0.39, -0.02, 42.21
258435, 541987579, 546950696, 0.08, 0.66, 0.64, 0.46, -0.31, 0.02, 42.23
258436, 541989563, 546952680, 0.25, 1.02, 0.29, 0.35, -0.30, 0.06, 42.22
258437, 541991577, 546954694, 0.39, 0.98, 1.86, 0.11, 0.05, 0.03, 42.26
258438, 541993561, 546956678, -0.12, -0.03, 2.70, -0.21, 0.14, -0.01, 42.23
258439, 541995575, 546958692, 0.03, -0.89, 0.43, -0.34, 0.29, -0.06, 42.28
258440, 541997559, 546960676, -0.34, -1.02, 1.85, 0.07, -0.20, -0.04, 42.22
258441, 541999574, 546962691, 0.09, -0.49, -0.63, 0.40, -0.44, -0.00, 42.19
258442, 542001558, 546964675, 0.02, 0.82, 0.82, 0.46, -0.35, 0.06, 42.21
258443, 542003572, 546966689, 0.37, 1.22, -0.04, 0.33, -0.16, 0.08, 42.24
258444, 542005586, 546968703, 0.22, 0.87, 1.88, 0.05, 0.16, 0.04, 42.20
258445, 542007570, 546970687, -0.01, -0.24, 2.85, -0.28, 0.14, -0.03, 42.19
258446, 542009585, 546972702, 0.03, -0.96, 0.65, -0.38, 0.19, -0.08, 42.25
258447, 542011568, 546974685, -0.42, -1.26, 1.18, 0.10, -0.30, -0.04, 42.20
258448, 542013583, 546976700, -0.05, 0.90, 0.28, 0.48, -0.31, 0.07, 42.27
258449, 542015567, 546978684, 0.44, 1.48, 0.57, 0.28, -0.04, 0.07, 42.25
258450, 542017581, 546980698, 0.20, 0.80, 1.88, -0.05, 0.18, 0.02, 42.24
258451, 542019565, 546982682, 0.08, -0.33, 2.81, -0.31, 0.10, -0.04, 42.25
258452, 542021579, 546984696, -0.24, -1.12, 0.52, -0.36, 0.10, -0.09, 42.29
258453, 542023563, 546986680, -0.41, -1.35, 0.57, 0.15, -0.27, -0.05, 42.27
258454, 542025577, 546988694, 0.28, -0.16, 0.15, 0.54, -0.41, 0.02, 42.26
258455, 542027561, 546990678, 0.04, 0.89, 0.04, 0.43, -0.35, 0.08, 42.24
258456, 542029576, 546992693, 0.59, 1.55, 1.54, 0.26, -0.08, 0.08, 42.24
258457, 542031560, 546994677, 0.21, 0.71, 1.91, -0.09, 0.21, 0.04, 42.23
258458, 542033574, 546996691, 0.02, -0.31, 2.49, -0.28, 0.22, -0.03, 42.22
258459, 542035558, 546998675, -0.38, -1.23, 0.08, -0.32, 0.14, -0.08, 42.20
258460, 542037572, 547000689, -0.42, -1.36, 0.76, 0.15, -0.24, -0.08, 42.22
258461, 542039587, 547002704, 0.27, 0.06, 0.31, 0.48, -0.48, -0.02, 42.23
258462, 542041570, 547004687, 0.16, 0.81, -0.36, 0.44, -0.48, 0.05, 42.23
258463, 542043585, 547006702, 0.64, 1.57, 2.22, 0.31, -0.16, 0.08, 42.27
258464, 542045569, 547008686, 0.26, 0.70, 1.93, -0.13, 0.30, 0.07, 42.21
258465, 542047583, 547010700, -0.04, -0.33, 2.15, -0.32, 0.40, 0.01, 42.22
258466, 542049567, 547012684, -0.44, -1.25, -0.18, -0.30, 0.21, -0.06, 42.21
258467, 542051581, 547014698, -0.31, -1.19, 1.12, 0.16, -0.29, -0.07, 42.19
258468, 542053565, 547016682, 0.16, -0.09, -0.05, 0.45, -0.57, -0.02, 42.21
258469, 542055579, 547018696, 0.25, 0.81, 0.19, 0.44, -0.48, 0.04, 42.26
258470, 542057563, 547020680, 0.61, 1.49, 2.24, 0.34, -0.09, 0.08, 42.21
258471, 542059578, 547022695, 0.26, 0.78, 1.94, -0.14, 0.40, 0.06, 42.22
258472, 542061562, 547024679, -0.19, -0.34, 1.48, -0.32, 0.46, -0.02, 42.20
258473, 542063576, 547026693, -0.39, -1.15, 0.03, -0.24, 0.12, -0.09, 42.17
258474, 542065560, 547028677, -0.23, -1.13, 1.47, 0.16, -0.41, -0.09, 42.24
258475, 542067574, 547030691, 0.23, -0.20, -0.49, 0.42, -0.59, -0.02, 42.27
258476, 542069558, 547032675, 0.33, 0.69, 0.52, 0.43, -0.39, 0.07, 42.24
258477, 542071572, 547034689, 0.61, 1.38, 2.47, 0.30, 0.04, 0.13, 42.19
258478, 542073587, 547036704, 0.16, 0.79, 1.72, -0.14, 0.50, 0.11, 42.21
258479, 542075571, 547038688, -0.29, -0.15, 1.51, -0.28, 0.53, -0.01, 42.24
258480, 542077585, 547040702, -0.37, -1.02, -0.09, -0.18, 0.10, -0.12, 42.26
258481, 542079569, 547042686, -0.30, -1.04, 1.48, 0.16, -0.49, -0.16, 42.26
258482, 542081583, 547044700, 0.18, -0.23, -0.74, 0.36, -0.63, -0.09, 42.23
258483, 542083567, 547046684, 0.50, 0.59, 1.25, 0.41, -0.39, 0.03, 42.21
258484, 542085581, 547048698, 0.63, 1.10, 1.92, 0.28, 0.06, 0.14, 42.24
258485, 542087565, 547050682, 0.20, 0.72, 1.90, -0.09, 0.51, 0.17, 42.22
258486, 542089580, 547052697, -0.35, -0.10, 1.51, -0.24, 0.61, 0.06, 42.19
258487, 542091563, 547054680, -0.31, -0.79, -0.28, -0.18, 0.24, -0.07, 42.25
258488, 542093578, 547056695, -0.40, -0.87, 1.45, 0.17, -0.45, -0.13, 42.23
258489, 542095562, 547058679, 0.20, -0.09, -0.50, 0.33, -0.63, -0.12, 42.20
258490, 542097576, 547060693, 0.55, 0.57, 1.74, 0.41, -0.38, -0.04, 42.24
258491, 542099560, 547062677, 0.45, 0.80, 1.08, 0.21, 0.05, 0.08, 42.25
258492, 542101574, 547064691, 0.21, 0.41, 2.01, -0.11, 0.46, 0.12, 42.24
258493, 542103558, 547066675, -0.27, -0.18, 1.82, -0.22, 0.54, 0.05, 42.25
258494, 542105573, 547068690, -0.15, -0.77, -0.76, -0.17, 0.25, -0.03, 42.20
258495, 542107587, 547070704, -0.30, -0.62, 1.64, 0.27, -0.43, -0.07, 42.25
258496, 542109571, 547072688, 0.24, 0.17, -0.19, 0.38, -0.59, -0.06, 42.24
258497, 542111585, 547074702, 0.47, 0.70, 1.76, 0.40, -0.23, -0.01, 42.30
258498, 542113569, 547076686, 0.33, 0.82, 0.63, 0.06, 0.16, 0.07, 42.27
258499, 542115583, 547078700, 0.20, 0.17, 1.98, -0.12, 0.46, 0.08, 42.25
258500, 542117567, 547080684, -0.34, -0.40, 2.22, -0.20, 0.43, 0.01, 42.24
258501, 542119582, 547082699, -0.19, -0.98, -1.04, -0.17, 0.22, -0.05, 42.23
258502, 542121565, 547084682, -0.33, -0.60, 1.48, 0.32, -0.40, -0.05, 42.22
258503, 542123580, 547086697, 0.38, 0.34, 0.35, 0.40, -0.52, -0.04, 42.28
258504, 542125564, 547088681, 0.47, 0.89, 1.78, 0.39, -0.16, 0.02, 42.23
258505, 542127578, 547090695, 0.35, 0.97, 0.78, 0.02, 0.18, 0.09, 42.23
258506, 542129562, 547092679, 0.13, 0.14, 1.39, -0.06, 0.46, 0.08, 42.23
258507, 542131576, 547094693, -0.43, -0.42, 2.14, -0.22, 0.39, -0.00, 42.26
258508, 542133560, 547096677, -0.21, -1.10, -1.02, -0.20, 0.26, -0.07, 42.27
258509, 542135575, 547098692, -0.27, -0.55, 1.79, 0.29, -0.36, -0.06, 42.24
258510, 542137558, 547100675, 0.45, 0.19, 0.56, 0.43, -0.53, -0.04, 42.21
258511, 542139573, 547102690, 0.38, 0.94, 1.73, 0.40, -0.16, 0.03, 42.18
258512, 542141587, 547104704, 0.30, 0.87, 0.51, 0.02, 0.23, 0.09, 42.26
258513, 542143571, 547106688, 0.05, 0.22, 1.33, -0.04, 0.53, 0.07, 42.25
258514, 542145585, 547108702, -0.38, -0.36, 2.12, -0.24, 0.34, -0.01, 42.22
258515, 542147569, 547110686, -0.00, -1.01, -0.97, -0.17, 0.19, -0.08, 42.21
258516, 542149584, 547112701, -0.18, -0.41, 1.81, 0.30, -0.43, -0.07, 42.21
258517, 542151567, 547114684, 0.54, 0.14, 0.83, 0.45, -0.48, -0.03, 42.18
258518, 542153582, 547116699, 0.23, 0.91, 1.58, 0.31, -0.06, 0.05, 42.24
258519, 542155566, 547118683, 0.29, 0.79, 0.52, 0.01, 0.37, 0.10, 42.25
258520, 542157580, 547120697, -0.12, 0.08, 1.09, -0.03, 0.59, 0.06, 42.23
258521, 542159564, 547122681, -0.41, -0.49, 1.95, -0.22, 0.22, -0.02, 42.20
258522, 542161578, 547124695, -0.08, -0.97, -0.71, -0.14, 0.03, -0.09, 42.21
258523, 542163562, 547126679, -0.04, -0.26, 1.90, 0.31, -0.45, -0.07, 42.26
258524, 542165577, 547128694, 0.60, 0.23, 0.85, 0.49, -0.36, -0.03, 42.24
258525, 542167560, 547130677, 0.14, 1.03, 1.57, 0.26, 0.03, 0.06, 42.25
258526, 542169575, 547132692, 0.28, 0.86, 0.82, -0.01, 0.43, 0.09, 42.25
258527, 542171559, 547134676, -0.21, -0.15, 0.42, -0.12, 0.55, 0.03, 42.25
258528, 542173573, 547136690, -0.32, -0.61, 2.42, -0.23, 0.08, -0.04, 42.23
258529, 542175587, 547138704, -0.11, -0.99, -0.69, -0.11, -0.08, -0.08, 42.22
258530, 542177571, 547140688, 0.04, -0.27, 1.91, 0.36, -0.40, -0.05, 42.23
258531, 542179586, 547142703, 0.49, 0.40, 0.69, 0.52, -0.22, 0.00, 42.24
258532, 542181569, 547144686, 0.12, 1.08, 1.48, 0.21, 0.07, 0.07, 42.25
258533, 542183584, 547146701, 0.23, 0.86, 0.99, -0.00, 0.38, 0.07, 42.26
258534, 542185568, 547148685, -0.23, -0.23, 0.52, -0.21, 0.45, 0.00, 42.22
258535, 542187582, 547150699, -0.04, -0.67, 1.84, -0.19, 0.00, -0.06, 42.23
258536, 542189566, 547152683, -0.27, -1.06, -0.40, -0.03, -0.16, -0.08, 42.27
258537, 542191580, 547154697, 0.09, -0.24, 1.91, 0.37, -0.34, -0.03, 42.26
258538, 542193564, 547156681, 0.49, 0.56, 0.84, 0.45, -0.10, 0.02, 42.25
258539, 542195578, 547158695, 0.16, 0.96, 1.37, 0.17, 0.09, 0.09, 42.24
258540, 542197562, 547160679, 0.22, 0.84, 1.14, 0.02, 0.31, 0.07, 42.24
258541, 542199577, 547162694, -0.29, -0.28, 0.46, -0.23, 0.34, -0.00, 42.23
258542, 542201561, 547164678, -0.07, -0.76, 1.24, -0.13, -0.02, -0.07, 42.21
258543, 542203575, 547166692, -0.26, -0.90, 0.23, 0.03, -0.22, -0.08, 42.20
258544, 542205559, 547168676, 0.28, -0.24, 2.18, 0.36, -0.29, -0.03, 42.20
258545, 542207573, 547170690, 0.13, 0.94, 1.44, 0.17, 0.12, 0.09, 42.23
258546, 542209588, 547172705, 0.10, 0.74, 0.80, 0.06, 0.28, 0.07, 42.25
258547, 542211571, 547174688, -0.28, -0.23, 0.91, -0.23, 0.26, -0.02, 42.20
258548, 542213586, 547176703, 0.01, -0.69, 0.63, -0.13, -0.05, -0.10, 42.23
258549, 542215570, 547178687, -0.16, -0.74, 0.93, 0.08, -0.36, -0.09, 42.23
258550, 542217584, 547180701, 0.44, -0.20, 2.15, 0.38, -0.38, -0.03, 42.23
258551, 542219568, 547182685, 0.19, 0.59, 0.49, 0.29, 0.00, 0.06, 42.24
258552, 542221582, 547184699, 0.08, 0.84, 1.28, 0.17, 0.29, 0.13, 42.25
258553, 542223566, 547186683, -0.13, 0.59, 0.72, 0.02, 0.38, 0.09, 42.24
258554, 542225580, 547188697, -0.35, -0.21, 1.13, -0.24, 0.21, -0.03, 42.24
258555, 542227564, 547190681, -0.04, -0.68, 0.19, -0.11, -0.16, -0.13, 42.25
258556, 542229579, 547192696, 0.15, -0.66, 1.33, 0.16, -0.55, -0.11, 42.26
258557, 542231563, 547194680, 0.52, -0.15, 1.99, 0.39, -0.47, -0.03, 42.25
258558, 542233577, 547196694, 0.22, 0.74, 0.82, 0.23, 0.09, 0.08, 42.27
258559, 542235561, 547198678, -0.04, 0.76, 0.72, 0.14, 0.53, 0.14, 42.28
258560, 542237575, 547200692, -0.26, 0.42, 0.38, -0.01, 0.49, 0.09, 42.23
258561, 542239559, 547202676, -0.27, -0.22, 1.86, -0.21, 0.04, -0.04, 42.30
258562, 542241573, 547204690, -0.04, -0.86, -0.10, -0.13, -0.37, -0.13, 42.24
258563, 542243588, 547206705, 0.40, -0.61, 2.07, 0.21, -0.61, -0.09, 42.23
258564, 542245572, 547208689, 0.38, -0.09, 1.10, 0.41, -0.38, 0.00, 42.25
258565, 542247586, 547210703, 0.29, 0.92, 1.21, 0.25, 0.24, 0.11, 42.25
258566, 542249570, 547212687, -0.17, 0.85, 0.68, 0.11, 0.63, 0.13, 42.25
258567, 542251584, 547214701, -0.24, 0.32, 0.06, -0.12, 0.45, 0.05, 42.25
258568, 542253568, 547216685, -0.29, -0.34, 2.24, -0.21, -0.14, -0.09, 42.23
258569, 542255582, 547218699, 0.05, -1.03, -0.26, -0.13, -0.49, -0.15, 42.21
258570, 542257566, 547220683, 0.58, -0.52, 2.27, 0.30, -0.61, -0.08, 42.29
258571, 542259581, 547222698, 0.22, 0.02, 0.73, 0.39, -0.30, 0.05, 42.24
258572, 542261565, 547224682, 0.35, 1.04, 1.41, 0.28, 0.33, 0.15, 42.24
258573, 542263579, 547226696, -0.24, 0.97, 0.88, 0.04, 0.66, 0.15, 42.23
258574, 542265563, 547228680, -0.27, 0.05, -0.40, -0.23, 0.47, 0.04, 42.26
258575, 542267577, 547230694, -0.30, -0.39, 2.69, -0.17, -0.24, -0.10, 42.27
258576, 542269561, 547232678, 0.19, -1.11, -0.18, -0.06, -0.56, -0.16, 42.24
258577, 542271575, 547234692, 0.40, -0.58, 1.80, 0.37, -0.55, -0.09, 42.25
258578, 542273559, 547236676, 0.20, 0.29, 0.85, 0.35, -0.23, 0.05, 42.24
258579, 542275574, 547238691, 0.43, 1.03, 1.45, 0.27, 0.35, 0.15, 42.26
258580, 542277557, 547240674, -0.28, 1.08, 1.06, -0.02, 0.59, 0.14, 42.23
258581, 542279572, 547242689, -0.15, 0.05, -0.25, -0.23, 0.43, 0.02, 42.24
258582, 542281586, 547244703, -0.41, -0.62, 1.97, -0.10, -0.25, -0.09, 42.24
258583, 542283570, 547246687, 0.25, -1.09, 0.51, -0.03, -0.53, -0.15, 42.28
258584, 542285584, 547248701, 0.26, -0.56, 1.50, 0.27, -0.46, -0.07, 42.23
258585, 542287568, 547250685, 0.38, 0.30, 1.22, 0.31, -0.15, 0.07, 42.24
258586, 542289583, 547252700, 0.30, 0.92, 1.19, 0.31, 0.37, 0.16, 42.21
258587, 542291567, 547254684, -0.32, 1.08, 0.48, 0.01, 0.55, 0.14, 42.21
258588, 542293581, 547256698, -0.02, 0.20, 0.33, -0.17, 0.38, -0.01, 42.21
258589, 542295565, 547258682, -0.24, -0.55, 1.68, -0.12, -0.32, -0.13, 42.25
258590, 542297579, 547260696, 0.39, -1.04, 0.95, -0.02, -0.55, -0.17, 42.26
258591, 542299563, 547262680, 0.06, -0.49, 1.40, 0.23, -0.35, -0.07, 42.22
258592, 542301577, 547264694, 0.33, 0.29, 1.33, 0.34, 0.05, 0.08, 42.26
258593, 542303561, 547266678, -0.06, 0.70, 0.29, 0.26, 0.44, 0.17, 42.22
258594, 542305576, 547268693, -0.27, 0.92, 0.91, -0.04, 0.43, 0.14, 42.26
258595, 542307559, 547270676, 0.02, 0.12, 0.77, -0.15, 0.19, -0.01, 42.26
258596, 542309574, 547272691, 0.04, -0.49, 1.60, -0.07, -0.38, -0.11, 42.28
258597, 542311558, 547274675, 0.43, -0.82, 1.15, 0.08, -0.49, -0.13, 42.24
258598, 542313572, 547276689, 0.06, -0.31, 1.15, 0.21, -0.23, -0.05, 42.25
258599, 542315586, 547278703, 0.29, 0.42, 1.44, 0.32, 0.22, 0.04, 42.27
258600, 542317570, 547280687, -0.23, 0.72, -0.14, 0.17, 0.46, 0.10, 42.22
258601, 542319585, 547282702, -0.15, 0.63, 0.96, -0.04, 0.26, 0.05, 42.24
258602, 542321568, 547284685, -0.06, -0.03, 1.35, -0.15, -0.08, -0.05, 42.27
258603, 542323583, 547286700, 0.09, -0.75, 1.24, -0.06, -0.38, -0.10, 42.24
258604, 542325567, 547288684, 0.26, -0.71, 1.14, 0.12, -0.31, -0.07, 42.21
258605, 542327581, 547290698, 0.06, -0.14, 1.10, 0.23, -0.06, 0.01, 42.24
258606, 542329565, 547292682, 0.24, 0.72, 1.68, 0.33, 0.27, 0.07, 42.21
258607, 542331579, 547294696, -0.27, 0.69, -0.58, 0.09, 0.34, 0.08, 42.24
258608, 542333563, 547296680, 0.05, 0.60, 1.40, -0.03, 0.09, 0.01, 42.25
258609, 542335578, 547298695, -0.09, -0.25, 0.89, -0.13, -0.19, -0.08, 42.25
258610, 542337561, 547300678, 0.27, -0.84, 1.46, -0.04, -0.28, -0.11, 42.26
258611, 542339576, 547302693, 0.26, -0.67, 1.18, 0.09, -0.20, -0.06, 42.24
258612, 542341560, 547304677, 0.12, -0.02, 1.17, 0.24, -0.01, 0.03, 42.26
258613, 542343574, 547306691, 0.07, 0.73, 1.68, 0.31, 0.20, 0.09, 42.24
258614, 542345558, 547308675, -0.24, 0.73, -0.56, 0.07, 0.32, 0.09, 42.27
258615, 542347572, 547310689, -0.06, 0.67, 1.36, 0.03, 0.09, 0.00, 42.24
258616, 542349587, 547312704, -0.05, -0.28, 0.70, -0.14, -0.21, -0.09, 42.27
258617, 542351632, 547314749, 0.30, -0.82, 1.70, -0.07, -0.29, -0.12, 42.27
258618, 542353585, 547316702, 0.15, -0.72, 0.82, 0.04, -0.20, -0.06, 42.25
258619, 542355569, 547318686, 0.24, -0.05, 1.69, 0.25, 0.04, 0.03, 42.21
258620, 542357583, 547320700, -0.02, 0.76, 1.72, 0.28, 0.22, 0.10, 42.20
258621, 542359567, 547322684, -0.21, 0.67, -0.91, 0.08, 0.32, 0.09, 42.22
258622, 542361581, 547324698, -0.05, 0.63, 1.39, 0.06, 0.02, -0.00, 42.25
258623, 542363565, 547326682, 0.10, -0.33, 0.90, -0.12, -0.30, -0.09, 42.22
258624, 542365580, 547328697, 0.35, -0.77, 1.74, -0.09, -0.30, -0.11, 42.22
258625, 542367563, 547330680, 0.20, -0.64, 0.51, 0.02, -0.12, -0.04, 42.23
258626, 542369578, 547332695, 0.11, 0.02, 1.82, 0.27, 0.16, 0.04, 42.24
258627, 542371562, 547334679, -0.25, 0.80, 1.59, 0.23, 0.29, 0.10, 42.27
258628, 542373576, 547336693, -0.19, 0.66, -0.85, 0.06, 0.37, 0.05, 42.26
258629, 542375560, 547338677, -0.15, 0.43, 1.07, 0.03, -0.09, -0.04, 42.26
258630, 542377574, 547340691, 0.35, -0.42, 1.48, -0.09, -0.45, -0.10, 42.23
258631, 542379558, 547342675, 0.39, -0.78, 1.70, -0.11, -0.38, -0.09, 42.24
258632, 542381572, 547344689, 0.29, -0.61, 0.36, 0.04, -0.01, -0.00, 42.25
258633, 542383587, 547346704, 0.11, 0.26, 1.99, 0.31, 0.30, 0.08, 42.24
258634, 542385571, 547348688, -0.32, 0.78, 0.96, 0.21, 0.34, 0.12, 42.22
258635, 542387585, 547350702, -0.25, 0.78, -0.17, 0.02, 0.34, 0.02, 42.25
258636, 542389569, 547352686, -0.07, 0.25, 0.90, -0.06, -0.21, -0.08, 42.24
258637, 542391583, 547354700, 0.10, -0.70, 1.68, -0.08, -0.36, -0.08, 42.23
258638, 542393567, 547356684, 0.29, -0.41, 0.27, 0.10, 0.15, -0.00, 42.24
258639, 542395582, 547358699, -0.08, 0.41, 1.93, 0.26, 0.39, 0.08, 42.22
258640, 542397565, 547360682, -0.25, 0.67, 0.69, 0.16, 0.29, 0.10, 42.21
258641, 542399580, 547362697, -0.17, 0.71, 0.36, -0.01, 0.16, 0.01, 42.24
258642, 542401564, 547364681, 0.08, -0.08, 0.97, -0.08, -0.35, -0.06, 42.27
258643, 542403578, 547366695, 0.53, -0.64, 1.47, 0.02, -0.45, -0.07, 42.26
258644, 542405562, 547368679, 0.06, -0.54, 1.38, -0.03, -0.22, -0.03, 42.24
258645, 542407576, 547370693, 0.27, -0.17, 0.44, 0.13, 0.34, 0.01, 42.27
258646, 542409560, 547372677, -0.17, 0.69, 2.09, 0.15, 0.40, 0.06, 42.28
258647, 542411574, 547374691, -0.20, 0.51, 0.12, 0.11, 0.18, 0.04, 42.26
258648, 542413558, 547376675, -0.27, 0.52, 0.97, -0.02, -0.06, -0.05, 42.24
258649, 542415573, 547378690, 0.23, -0.42, 0.70, -0.06, -0.38, -0.09, 42.24
258650, 542417587, 547380704, 0.44, -0.65, 1.28, 0.01, -0.36, -0.06, 42.22
258651, 542419571, 547382688, 0.03, -0.60, 1.12, 0.01, -0.16, 0.03, 42.24
258652, 542421585, 547384702, 0.43, 0.23, 1.26, 0.18, 0.35, 0.07, 42.25
258653, 542423569, 547386686, -0.27, 0.77, 1.57, 0.10, 0.34, 0.10, 42.24
258654, 542425583, 547388700, -0.13, 0.66, 0.21, 0.11, 0.20, 0.04, 42.20
258655, 542427567, 547390684, -0.26, 0.34, 0.99, -0.06, -0.07, -0.06, 42.22
258656, 542429582, 547392699, 0.30, -0.60, 0.74, -0.10, -0.33, -0.13, 42.18
258657, 542431566, 547394683, 0.26, -0.69, 1.30, -0.05, -0.36, -0.09, 42.25
258658, 542433580, 547396697, 0.14, -0.59, 1.26, 0.06, -0.18, 0.00, 42.24
258659, 542435564, 547398681, 0.32, 0.28, 1.22, 0.20, 0.31, 0.07, 42.27
258660, 542437578, 547400695, -0.35, 0.90, 1.53, 0.09, 0.35, 0.12, 42.28
258661, 542439562, 547402679, -0.20, 0.71, -0.07, 0.14, 0.29, 0.05, 42.22
258662, 542441576, 547404693, -0.23, 0.34, 1.09, -0.09, -0.10, -0.06, 42.21
258663, 542443560, 547406677, 0.50, -0.57, 0.80, -0.12, -0.40, -0.13, 42.25
258664, 542445575, 547408692, 0.22, -0.78, 1.32, -0.07, -0.45, -0.08, 42.29
258665, 542447558, 547410675, 0.26, -0.66, 1.43, 0.09, -0.14, 0.02, 42.28
258666, 542449573, 547412690, 0.20, 0.36, 0.97, 0.16, 0.40, 0.10, 42.23
258667, 542451587, 547414704, -0.38, 0.84, 1.72, 0.11, 0.43, 0.12, 42.25
258668, 542453571, 547416688, -0.21, 0.83, -0.09, 0.14, 0.34, 0.02, 42.23
258669, 542455585, 547418702, -0.17, 0.29, 1.09, -0.11, -0.18, -0.11, 42.23
258670, 542457569, 547420686, 0.47, -0.61, 0.86, -0.13, -0.54, -0.17, 42.21
258671, 542459584, 547422701, 0.20, -0.87, 1.20, -0.09, -0.52, -0.10, 42.23
258672, 542461568, 547424685, 0.34, -0.63, 1.49, 0.12, -0.05, 0.03, 42.23
258673, 542463582, 547426699, 0.07, 0.37, 0.63, 0.12, 0.46, 0.15, 42.23
258674, 542465566, 547428683, -0.31, 0.82, 1.91, 0.15, 0.44, 0.17, 42.27
258675, 542467580, 547430697, -0.22, 0.74, -0.37, 0.09, 0.32, 0.05, 42.22
258676, 542469564, 547432681, -0.01, 0.27, 1.58, -0.13, -0.23, -0.09, 42.24
258677, 542471578, 547434695, 0.41, -0.51, 0.86, -0.11, -0.57, -0.16, 42.23
258678, 542473562, 547436679, 0.22, -0.85, 1.14, -0.06, -0.45, -0.11, 42.24
258679, 542475577, 547438694, 0.34, -0.53, 1.34, 0.16, 0.02, -0.00, 42.20
258680, 542477560, 547440677, -0.06, 0.33, 0.34, 0.04, 0.39, 0.11, 42.21
258681, 542479575, 547442692, -0.29, 0.74, 2.56, 0.17, 0.37, 0.13, 42.20
258682, 542481559, 547444676, -0.18, 0.62, -0.56, 0.03, 0.33, 0.03, 42.24
258683, 542483573, 547446690, 0.04, 0.27, 1.23, -0.08, -0.19, -0.07, 42.23
258684, 542485587, 547448704, 0.20, -0.42, 1.07, -0.05, -0.59, -0.11, 42.23
258685, 542487571, 547450688, 0.21, -0.72, 1.00, -0.04, -0.41, -0.07, 42.22
258686, 542489586, 547452703, 0.31, -0.41, 1.14, 0.11, 0.09, 0.01, 42.27
258687, 542491570, 547454687, 0.03, 0.26, 0.64, -0.01, 0.37, 0.11, 42.24
258688, 542493584, 547456701, -0.28, 0.59, 2.72, 0.19, 0.27, 0.12, 42.23
258689, 542495568, 547458685, -0.12, 0.54, -0.36, -0.00, 0.27, 0.02, 42.21
258690, 542497582, 547460699, 0.12, 0.20, 1.00, -0.02, -0.16, -0.09, 42.29
258691, 542499566, 547462683, 0.17, -0.33, 0.66, 0.01, -0.56, -0.12, 42.24
258692, 542501580, 547464697, 0.25, -0.54, 1.57, -0.03, -0.37, -0.09, 42.24
258693, 542503564, 547466681, 0.19, -0.27, 0.80, 0.01, 0.11, -0.01, 42.19
258694, 542505579, 547468696, -0.00, 0.19, 0.82, -0.00, 0.36, 0.09, 42.23
258695, 542507562, 547470679, -0.43, 0.39, 2.32, 0.23, 0.25, 0.11, 42.26
258696, 542509577, 547472694, -0.00, 0.47, 0.06, -0.03, 0.22, 0.03, 42.30
258697, 542511561, 547474678, 0.16, 0.11, 1.01, -0.04, -0.22, -0.06, 42.27
258698, 542513575, 547476692, 0.31, -0.27, 0.79, 0.06, -0.59, -0.08, 42.23
258699, 542515559, 547478676, 0.27, -0.37, 1.49, 0.06, -0.31, -0.05, 42.24
258700, 542517573, 547480690, 0.05, -0.21, 0.27, -0.03, 0.21, 0.01, 42.24
258701, 542519588, 547482705, -0.03, 0.19, 1.42, -0.04, 0.42, 0.06, 42.24
258702, 542521572, 547484689, -0.38, 0.23, 1.88, 0.19, 0.21, 0.06, 42.22
258703, 542523586, 547486703, 0.12, 0.41, 0.43, -0.03, 0.08, -0.02, 42.25
258704, 542525570, 547488687, 0.03, 0.07, 0.75, 0.02, -0.35, -0.08, 42.27
258705, 542527584, 547490701, 0.34, -0.14, 0.80, 0.12, -0.57, -0.06, 42.27
258706, 542529568, 547492685, 0.15, -0.26, 1.37, 0.09, -0.22, -0.02, 42.27
258707, 542531582, 547494699, 0.14, -0.00, 0.46, -0.10, 0.32, 0.03, 42.27
258708, 542533566, 547496683, -0.21, 0.06, 1.58, -0.06, 0.43, 0.07, 42.23
258709, 542535581, 547498698, -0.21, 0.05, 1.76, 0.15, 0.11, 0.06, 42.26
258710, 542537564, 547500681, 0.08, 0.13, 0.61, -0.01, -0.10, -0.02, 42.25
258711, 542539579, 547502696, 0.19, 0.06, 0.83, 0.10, -0.41, -0.06, 42.24
258712, 542541563, 547504680, 0.39, -0.00, 0.39, 0.19, -0.42, -0.05, 42.21
258713, 542543577, 547506694, 0.00, -0.05, 1.25, 0.07, -0.08, -0.03, 42.21
258714, 542545591, 547508708, 0.22, 0.23, 0.80, -0.13, 0.32, -0.01, 42.22
258715, 542547575, 547510692, -0.45, -0.00, 1.62, -0.06, 0.31, 0.02, 42.24
258716, 542549559, 547512676, -0.06, -0.13, 1.56, 0.13, 0.05, 0.01, 42.26
258717, 542551573, 547514690, -0.03, -0.07, 0.76, 0.02, -0.17, -0.02, 42.24
258718, 542553557, 547516674, 0.13, -0.09, 0.56, 0.12, -0.41, -0.03, 42.24
258719, 542555572, 547518689, 0.48, 0.19, 0.72, 0.21, -0.34, -0.01, 42.23
258720, 542557586, 547520703, 0.06, -0.01, 1.07, 0.06, -0.04, 0.02, 42.23
258721, 542559570, 547522687, 0.25, 0.41, 1.08, -0.11, 0.27, 0.02, 42.26
258722, 542561584, 547524701, -0.47, -0.05, 1.82, -0.03, 0.26, 0.02, 42.29
258723, 542563568, 547526685, 0.04, -0.22, 1.01, 0.10, 0.11, -0.02, 42.25
258724, 542565583, 547528700, -0.17, -0.21, 0.56, 0.01, -0.20, -0.06, 42.27
258725, 542567566, 547530683, 0.30, -0.05, 0.87, 0.17, -0.49, -0.05, 42.22
258726, 542569581, 547532698, 0.42, 0.17, 0.71, 0.20, -0.36, -0.01, 42.19
258727, 542571565, 547534682, 0.07, 0.16, 1.21, 0.08, 0.03, 0.02, 42.20
258728, 542573579, 547536696, 0.17, 0.46, 0.84, -0.06, 0.36, 0.03, 42.25
258729, 542575563, 547538680, -0.47, -0.03, 2.20, -0.01, 0.30, 0.03, 42.29
258730, 542577577, 547540694, 0.07, -0.24, 0.84, 0.05, 0.11, -0.03, 42.27
258731, 542579561, 547542678, -0.12, -0.29, 0.40, 0.04, -0.31, -0.06, 42.26
258732, 542581575, 547544692, 0.34, -0.16, 0.77, 0.25, -0.59, -0.03, 42.25
258733, 542583559, 547546676, 0.36, 0.23, 0.82, 0.19, -0.33, 0.02, 42.23
258734, 542585574, 547548691, 0.07, 0.52, 0.99, -0.05, 0.46, 0.03, 42.27
258735, 542587558, 547550675, -0.40, -0.06, 2.56, 0.04, 0.23, 0.00, 42.25
258736, 542589572, 547552689, -0.04, -0.36, 0.54, 0.03, -0.00, -0.07, 42.21
258737, 542591586, 547554703, -0.07, -0.46, 0.10, 0.05, -0.40, -0.07, 42.25
258738, 542593570, 547556687, 0.40, -0.15, 0.92, 0.32, -0.59, -0.01, 42.26
258739, 542595585, 547558702, 0.29, 0.30, 0.80, 0.20, -0.21, 0.06, 42.24
258740, 542597568, 547560685, 0.21, 0.45, 1.15, 0.08, 0.34, 0.06, 42.23
258741, 542599583, 547562700, -0.04, 0.47, 0.78, -0.06, 0.45, 0.03, 42.25
258742, 542601567, 547564684, -0.29, -0.12, 3.05, 0.07, 0.10, -0.01, 42.28
258743, 542603581, 547566698, -0.10, -0.35, 0.65, -0.02, -0.09, -0.08, 42.19
258744, 542605565, 547568682, 0.05, -0.61, -0.26, 0.07, -0.35, -0.07, 42.22
258745, 542607579, 547570696, 0.39, -0.14, 0.82, 0.39, -0.52, 0.01, 42.25
258746, 542609563, 547572680, 0.21, 0.38, 0.79, 0.24, -0.17, 0.06, 42.21
258747, 542611577, 547574694, 0.20, 0.68, 1.41, 0.09, 0.40, 0.05, 42.26
258748, 542613561, 547576678, -0.02, 0.46, 0.79, -0.13, 0.45, 0.02, 42.25
258749, 542615576, 547578693, -0.15, -0.23, 3.06, 0.09, 0.08, -0.02, 42.23
258750, 542617560, 547580677, -0.21, -0.37, 0.76, -0.02, -0.13, -0.08, 42.29
258751, 542619574, 547582691, -0.01, -0.71, -0.83, 0.14, -0.30, -0.07, 42.27
258752, 542621558, 547584675, 0.24, 0.06, 1.00, 0.39, -0.48, 0.02, 42.22
258753, 542623572, 547586689, 0.37, 0.28, 0.67, 0.24, -0.18, 0.07, 42.25
258754, 542625587, 547588704, 0.28, 0.77, 2.00, 0.05, 0.30, 0.07, 42.24
258755, 542627570, 547590687, 0.04, 0.31, 1.03, -0.15, 0.45, 0.05, 42.23
258756, 542629585, 547592702, -0.16, -0.18, 2.90, 0.17, 0.23, -0.01, 42.25
258757, 542631569, 547594686, -0.33, -0.38, 0.00, 0.03, -0.04, -0.08, 42.26
258758, 542633583, 547596700, 0.06, -0.56, -0.76, 0.16, -0.27, -0.09, 42.30
258759, 542635567, 547598684, 0.24, 0.16, 1.19, 0.29, -0.56, -0.02, 42.24
258760, 542637581, 547600698, 0.45, 0.14, 0.68, 0.23, -0.22, 0.03, 42.21
258761, 542639565, 547602682, 0.26, 0.59, 2.27, 0.07, 0.28, 0.07, 42.26
258762, 542641579, 547604696, 0.07, 0.14, 0.96, -0.10, 0.56, 0.07, 42.24
258763, 542643563, 547606680, -0.34, -0.14, 2.51, 0.15, 0.38, 0.03, 42.23
258764, 542645578, 547608695, -0.33, -0.27, 0.31, 0.06, -0.04, -0.05, 42.24
258765, 542647562, 547610679, 0.19, -0.31, -0.58, 0.19, -0.34, -0.09, 42.27
258766, 542649576, 547612693, 0.25, 0.18, 0.88, 0.29, -0.62, -0.03, 42.25
258767, 542651560, 547614677, 0.50, 0.20, 0.63, 0.25, -0.18, 0.01, 42.24
258768, 542653574, 547616691, 0.25, 0.50, 2.44, 0.01, 0.33, 0.06, 42.23
258769, 542655558, 547618675, 0.02, 0.11, 1.45, -0.13, 0.68, 0.06, 42.23
258770, 542657572, 547620689, -0.49, -0.33, 1.69, 0.12, 0.46, 0.01, 42.26
258771, 542659587, 547622704, -0.33, -0.33, 0.58, 0.11, -0.11, -0.06, 42.27
258772, 542661571, 547624688, 0.15, -0.18, -0.40, 0.21, -0.44, -0.08, 42.27
258773, 542663585, 547626702, 0.32, 0.17, 0.62, 0.31, -0.61, -0.02, 42.24
258774, 542665569, 547628686, 0.63, 0.37, 0.67, 0.26, -0.09, 0.03, 42.22
258775, 542667583, 547630700, 0.34, 0.54, 2.89, 0.00, 0.36, 0.08, 42.27
258776, 542669567, 547632684, -0.02, 0.07, 1.31, -0.14, 0.73, 0.07, 42.27
258777, 542671581, 547634698, -0.55, -0.49, 1.30, 0.04, 0.56, 0.01, 42.23
258778, 542673565, 547636682, -0.30, -0.39, 0.53, 0.17, -0.09, -0.07, 42.22
258779, 542675580, 547638697, 0.13, -0.09, -0.16, 0.23, -0.49, -0.09, 42.21
258780, 542677563, 547640680, 0.33, 0.14, 0.33, 0.30, -0.62, -0.05, 42.26
258781, 542679608, 547642725, 0.75, 0.48, 0.91, 0.25, -0.11, 0.01, 42.26
258782, 542681562, 547644679, 0.29, 0.46, 3.03, 0.01, 0.33, 0.09, 42.21
258783, 542683576, 547646693, -0.14, 0.07, 1.42, -0.12, 0.78, 0.10, 42.26
258784, 542685560, 547648677, -0.62, -0.57, 1.05, 0.00, 0.71, 0.03, 42.27
258785, 542687574, 547650691, -0.30, -0.26, 0.30, 0.18, -0.03, -0.06, 42.22
258786, 542689558, 547652675, 0.01, -0.07, -0.15, 0.26, -0.59, -0.09, 42.24
258787, 542691573, 547654690, 0.41, 0.24, 0.67, 0.30, -0.69, -0.06, 42.20
258788, 542693587, 547656704, 0.81, 0.41, 0.89, 0.19, -0.08, -0.01, 42.23
258789, 542695571, 547658688, 0.27, 0.44, 2.79, 0.01, 0.39, 0.07, 42.25
258790, 542697585, 547660702, -0.19, -0.06, 1.59, -0.10, 0.80, 0.09, 42.25
258791, 542699569, 547662686, -0.60, -0.50, 1.25, -0.03, 0.69, 0.02, 42.28
258792, 542701583, 547664700, -0.37, -0.41, -0.29, 0.14, -0.05, -0.06, 42.29
258793, 542703567, 547666684, -0.04, 0.01, 0.14, 0.33, -0.66, -0.08, 42.30
258794, 542705582, 547668699, 0.46, 0.45, 1.03, 0.37, -0.71, -0.05, 42.32
258795, 542707565, 547670682, 0.80, 0.47, 0.64, 0.14, 0.01, 0.00, 42.24
258796, 542709580, 547672697, 0.20, 0.45, 2.64, -0.05, 0.50, 0.06, 42.24
258797, 542711564, 547674681, -0.15, -0.07, 1.72, -0.09, 0.77, 0.06, 42.26
258798, 542713578, 547676695, -0.64, -0.65, 1.05, -0.03, 0.55, -0.00, 42.25
258799, 542715562, 547678679, -0.26, -0.53, 0.01, 0.12, -0.15, -0.07, 42.21
258800, 542717576, 547680693, 0.03, -0.08, 0.03, 0.34, -0.68, -0.06, 42.22
258801, 542719560, 547682677, 0.47, 0.50, 0.97, 0.38, -0.64, -0.01, 42.24
258802, 542721575, 547684692, 0.69, 0.64, 0.98, 0.16, 0.11, 0.04, 42.24
258803, 542723558, 547686675, 0.08, 0.59, 2.47, -0.05, 0.59, 0.06, 42.24
258804, 542725573, 547688690, -0.24, -0.04, 1.34, -0.07, 0.71, 0.03, 42.23
258805, 542727587, 547690704, -0.57, -0.66, 1.21, -0.06, 0.29, -0.05, 42.24
258806, 542729571, 547692688, -0.14, -0.68, 0.11, 0.07, -0.33, -0.09, 42.24
258807, 542731585, 547694702, 0.22, -0.11, 0.28, 0.33, -0.67, -0.04, 42.27
258808, 542733569, 547696686, 0.49, 0.30, 0.35, 0.37, -0.47, 0.04, 42.26
258809, 542735584, 547698701, 0.58, 0.82, 1.90, 0.14, 0.26, 0.10, 42.23
258810, 542737567, 547700684, -0.06, 0.60, 2.11, -0.07, 0.68, 0.09, 42.24
258811, 542739582, 547702699, -0.34, -0.14, 0.74, -0.03, 0.67, 0.01, 42.23
258812, 542741566, 547704683, -0.54, -0.54, 1.49, -0.02, 0.02, -0.09, 42.23
258813, 542743580, 547706697, 0.03, -0.61, -0.05, 0.09, -0.56, -0.14, 42.28
258814, 542745564, 547708681, 0.22, -0.25, 0.23, 0.33, -0.72, -0.07, 42.28
258815, 542747578, 547710695, 0.57, 0.39, 0.64, 0.33, -0.33, 0.04, 42.26
258816, 542749562, 547712679, 0.45, 0.76, 2.30, 0.13, 0.36, 0.13, 42.29
258817, 542751577, 547714694, -0.20, 0.53, 1.94, -0.10, 0.76, 0.11, 42.26
258818, 542753560, 547716677, -0.49, -0.33, 0.28, -0.04, 0.62, 0.02, 42.23
258819, 542755575, 547718692, -0.43, -0.46, 1.64, 0.03, -0.20, -0.08, 42.21
258820, 542757559, 547720676, 0.12, -0.51, -0.38, 0.14, -0.73, -0.12, 42.24
258821, 542759573, 547722690, 0.22, -0.11, 0.36, 0.34, -0.71, -0.06, 42.29
258822, 542761587, 547724704, 0.72, 0.58, 1.23, 0.31, -0.17, 0.04, 42.28
258823, 542763571, 547726688, 0.33, 0.62, 1.91, 0.08, 0.44, 0.11, 42.30
258824, 542765586, 547728703, -0.35, 0.40, 2.18, -0.14, 0.72, 0.08, 42.29
258825, 542767569, 547730686, -0.34, -0.48, 0.30, -0.07, 0.52, -0.01, 42.28
258826, 542769584, 547732701, -0.36, -0.53, 1.29, 0.09, -0.37, -0.07, 42.29
258827, 542771568, 547734685, 0.09, -0.40, -0.24, 0.25, -0.83, -0.09, 42.27
258828, 542773582, 547736699, 0.31, 0.22, 0.61, 0.36, -0.62, -0.02, 42.24
258829, 542775566, 547738683, 0.10, 0.54, 1.79, 0.01, 0.48, 0.09, 42.27
258830, 542777580, 547740697, -0.38, 0.27, 2.88, -0.14, 0.63, 0.05, 42.24
258831, 542779564, 547742681, -0.42, -0.83, -0.24, -0.11, 0.42, -0.05, 42.22
258832, 542781578, 547744695, -0.27, -0.60, 0.87, 0.13, -0.47, -0.09, 42.23
258833, 542783562, 547746679, 0.19, -0.39, 0.04, 0.33, -0.95, -0.06, 42.21
258834, 542785577, 547748694, 0.54, 0.48, 0.94, 0.35, -0.64, 0.03, 42.22
258835, 542787561, 547750678, 0.79, 0.91, 1.01, 0.18, 0.12, 0.10, 42.27
258836, 542789575, 547752692, -0.00, 0.59, 1.72, 0.01, 0.61, 0.11, 42.24
258837, 542791559, 547754676, -0.47, 0.16, 2.75, -0.12, 0.64, 0.04, 42.21
258838, 542793573, 547756690, -0.53, -0.95, -0.29, -0.17, 0.29, -0.09, 42.27
258839, 542795588, 547758705, -0.29, -0.73, 0.77, 0.12, -0.63, -0.13, 42.20
258840, 542797571, 547760688, 0.32, -0.42, -0.02, 0.41, -1.04, -0.08, 42.21
258841, 542799586, 547762703, 0.61, 0.54, 1.20, 0.39, -0.63, 0.03, 42.24
258842, 542801570, 547764687, 0.68, 1.02, 1.30, 0.17, 0.20, 0.12, 42.23
258843, 542803584, 547766701, -0.00, 0.75, 1.74, -0.04, 0.74, 0.12, 42.21
258844, 542805568, 547768685, -0.45, 0.04, 2.03, -0.11, 0.64, 0.03, 42.27
258845, 542807582, 547770699, -0.59, -0.91, 0.00, -0.17, 0.13, -0.10, 42.25
258846, 542809566, 547772683, -0.21, -0.83, 0.62, 0.12, -0.79, -0.14, 42.25
258847, 542811580, 547774697, 0.41, -0.50, -0.11, 0.40, -1.10, -0.07, 42.23
258848, 542813564, 547776681, 0.69, 0.52, 1.53, 0.38, -0.57, 0.06, 42.27
258849, 542815579, 547778696, 0.63, 1.09, 1.42, 0.20, 0.33, 0.15, 42.26
258850, 542817563, 547780680, -0.21, 0.79, 1.86, -0.04, 0.86, 0.13, 42.26
258851, 542819577, 547782694, -0.49, 0.06, 1.44, -0.11, 0.64, 0.01, 42.24
258852, 542821561, 547784678, -0.65, -0.76, 0.45, -0.17, -0.11, -0.13, 42.23
258853, 542823575, 547786692, -0.07, -0.93, 0.52, 0.11, -0.96, -0.18, 42.24
258854, 542825559, 547788676, 0.59, -0.41, -0.03, 0.43, -1.10, -0.08, 42.21
258855, 542827573, 547790690, 0.61, 0.46, 1.38, 0.36, -0.49, 0.08, 42.21
258856, 542829588, 547792705, 0.64, 1.02, 1.60, 0.17, 0.43, 0.18, 42.24
258857, 542831572, 547794689, -0.35, 0.77, 2.36, -0.10, 0.95, 0.15, 42.27
258858, 542833586, 547796703, -0.54, -0.17, 0.19, -0.14, 0.69, 0.01, 42.25
258859, 542835570, 547798687, -0.58, -0.53, 1.23, -0.09, -0.28, -0.13, 42.24
258860, 542837584, 547800701, 0.02, -0.88, 0.33, 0.19, -1.11, -0.18, 42.26
258861, 542839568, 547802685, 0.66, -0.27, 0.16, 0.41, -1.02, -0.09, 42.26
258862, 542841582, 547804699, 0.62, 0.62, 1.09, 0.31, -0.36, 0.06, 42.22
258863, 542843566, 547806683, 0.58, 0.79, 1.55, 0.16, 0.47, 0.16, 42.19
258864, 542845581, 547808698, -0.55, 0.60, 3.36, -0.12, 0.86, 0.14, 42.23
258865, 542847565, 547810682, -0.46, -0.42, -0.94, -0.20, 0.66, 0.02, 42.25
258866, 542849579, 547812696, -0.50, -0.64, 1.23, -0.00, -0.36, -0.09, 42.27
258867, 542851563, 547814680, 0.06, -0.61, 0.47, 0.29, -1.17, -0.14, 42.29
258868, 542853577, 547816694, 0.69, 0.03, 0.33, 0.38, -0.95, -0.07, 42.24
258869, 542855561, 547818678, 0.72, 0.89, 1.38, 0.28, -0.29, 0.06, 42.25
258870, 542857575, 547820692, 0.41, 0.64, 1.36, 0.13, 0.50, 0.12, 42.25
258871, 542859559, 547822676, -0.62, 0.35, 3.12, -0.15, 0.81, 0.09, 42.26
258872, 542861574, 547824691, -0.51, -0.71, -0.70, -0.29, 0.61, -0.02, 42.21
258873, 542863557, 547826674, -0.56, -0.68, 1.32, 0.04, -0.46, -0.11, 42.26
258874, 542865572, 547828689, 0.21, -0.53, 0.33, 0.40, -1.24, -0.12, 42.24
258875, 542867586, 547830703, 0.65, 0.33, 0.62, 0.42, -0.91, -0.04, 42.28
258876, 542869570, 547832687, 0.75, 1.03, 1.08, 0.27, -0.18, 0.07, 42.24
258877, 542871584, 547834701, 0.24, 0.67, 1.20, 0.05, 0.58, 0.11, 42.24
258878, 542873599, 547836716, -0.58, 0.25, 3.42, -0.19, 0.71, 0.07, 42.22
258879, 542875583, 547838700, -0.36, -0.85, -0.69, -0.28, 0.45, -0.05, 42.29
258880, 542877567, 547840684, -0.58, -0.85, 0.85, 0.09, -0.61, -0.11, 42.22
258881, 542879581, 547842698, 0.34, -0.47, 0.46, 0.45, -1.23, -0.09, 42.24
258882, 542881565, 547844682, 0.52, 0.55, 1.11, 0.40, -0.79, -0.00, 42.25
258883, 542883579, 547846696, 0.77, 0.97, 0.91, 0.23, 0.01, 0.07, 42.26
258884, 542885563, 547848680, 0.05, 0.64, 1.37, 0.01, 0.63, 0.09, 42.28
258885, 542887577, 547850694, -0.44, 0.13, 2.81, -0.16, 0.55, 0.04, 42.25
258886, 542889561, 547852678, -0.37, -0.93, -0.59, -0.24, 0.20, -0.07, 42.24
258887, 542891576, 547854693, -0.41, -0.79, 1.05, 0.13, -0.72, -0.11, 42.23
258888, 542893559, 547856676, 0.55, -0.33, 0.25, 0.45, -1.07, -0.06, 42.25
258889, 542895574, 547858691, 0.50, 0.76, 1.51, 0.40, -0.61, 0.03, 42.22
258890, 542897558, 547860675, 0.75, 0.93, 0.60, 0.21, 0.14, 0.09, 42.23
258891, 542899572, 547862689, -0.18, 0.47, 1.67, -0.07, 0.62, 0.09, 42.25
258892, 542901586, 547864703, -0.40, -0.14, 2.18, -0.19, 0.45, 0.02, 42.24
258893, 542903570, 547866687, -0.51, -1.01, -0.22, -0.18, 0.02, -0.08, 42.24
258894, 542905585, 547868702, -0.26, -0.74, 1.29, 0.21, -0.76, -0.10, 42.21
258895, 542907568, 547870685, 0.67, 0.04, 0.12, 0.47, -0.92, -0.05, 42.26
258896, 542909583, 547872700, 0.40, 0.80, 0.96, 0.40, -0.50, 0.02, 42.29
258897, 542911567, 547874684, 0.64, 1.07, 1.43, 0.17, 0.15, 0.07, 42.27
258898, 542913581, 547876698, -0.27, 0.46, 1.64, -0.16, 0.60, 0.05, 42.28
258899, 542915565, 547878682, -0.30, -0.41, 1.33, -0.21, 0.40, -0.02, 42.25
258900, 542917579, 547880696, -0.62, -1.16, 0.13, -0.10, -0.15, -0.08, 42.24
258901, 542919563, 547882680, -0.06, -0.67, 1.86, 0.25, -0.81, -0.07, 42.27
258902, 542921578, 547884695, 0.67, 0.13, -0.33, 0.42, -0.75, 0.01, 42.26
258903, 542923561, 547886678, 0.46, 0.79, 1.16, 0.38, -0.33, 0.07, 42.26
258904, 542925576, 547888693, 0.61, 1.17, 1.63, 0.17, 0.21, 0.08, 42.25
258905, 542927560, 547890677, -0.34, 0.46, 1.76, -0.17, 0.54, 0.03, 42.24
258906, 542929574, 547892691, -0.26, -0.58, 0.34, -0.21, 0.32, -0.06, 42.24
258907, 542931558, 547894675, -0.50, -1.07, 0.74, -0.03, -0.27, -0.12, 42.25
258908, 542933572, 547896689, 0.09, -0.62, 1.74, 0.25, -0.82, -0.08, 42.28
258909, 542935587, 547898704, 0.59, 0.13, -0.39, 0.38, -0.60, 0.01, 42.27
258910, 542937570, 547900687, 0.42, 0.84, 1.37, 0.39, -0.21, 0.08, 42.23
258911, 542939585, 547902702, 0.40, 1.01, 1.53, 0.16, 0.25, 0.11, 42.26
258912, 542941569, 547904686, -0.46, 0.41, 1.84, -0.19, 0.51, 0.04, 42.21
258913, 542943583, 547906700, -0.34, -0.63, 0.15, -0.22, 0.25, -0.07, 42.24
258914, 542945567, 547908684, -0.28, -1.02, 0.90, 0.04, -0.40, -0.11, 42.30
258915, 542947581, 547910698, 0.24, -0.53, 1.66, 0.28, -0.89, -0.07, 42.22
258916, 542949565, 547912682, 0.53, 0.17, -0.51, 0.37, -0.53, 0.01, 42.24
258917, 542951580, 547914697, 0.53, 1.03, 1.86, 0.37, -0.08, 0.08, 42.26
258918, 542953563, 547916680, 0.28, 0.88, 0.93, 0.12, 0.38, 0.10, 42.30
258919, 542955578, 547918695, -0.44, 0.33, 2.20, -0.21, 0.55, 0.02, 42.25
258920, 542957562, 547920679, -0.48, -0.80, -0.17, -0.24, 0.23, -0.09, 42.25
258921, 542959576, 547922693, -0.18, -0.89, 1.57, 0.08, -0.43, -0.12, 42.23
258922, 542961560, 547924677, 0.18, -0.52, 1.13, 0.31, -0.89, -0.05, 42.24
258923, 542963574, 547926691, 0.63, 0.24, -0.49, 0.41, -0.44, 0.02, 42.23
258924, 542965558, 547928675, 0.58, 1.19, 2.33, 0.34, 0.02, 0.09, 42.23
258925, 542967572, 547930689, -0.43, 0.23, 2.57, -0.22, 0.52, 0.03, 42.22
258926, 542969587, 547932704, -0.38, -0.91, -0.19, -0.21, 0.22, -0.08, 42.23
258927, 542971571, 547934688, -0.14, -0.84, 1.19, 0.12, -0.36, -0.11, 42.24
258928, 542973585, 547936702, 0.09, -0.51, 0.81, 0.33, -0.87, -0.05, 42.25
258929, 542975569, 547938686, 0.76, 0.38, 0.20, 0.43, -0.44, 0.01, 42.27
258930, 542977583, 547940700, 0.51, 1.20, 2.31, 0.26, 0.04, 0.09, 42.27
258931, 542979567, 547942684, 0.22, 0.75, -0.13, -0.01, 0.61, 0.10, 42.25
258932, 542981582, 547944699, -0.55, 0.11, 2.85, -0.19, 0.60, 0.02, 42.24
258933, 542983565, 547946682, -0.36, -1.00, -0.05, -0.21, 0.25, -0.08, 42.26
258934, 542985580, 547948697, -0.21, -0.93, 1.07, 0.09, -0.34, -0.11, 42.25
258935, 542987564, 547950681, 0.22, -0.39, 1.15, 0.39, -0.90, -0.04, 42.24
258936, 542989578, 547952695, 0.87, 0.43, 0.08, 0.47, -0.45, 0.02, 42.26
258937, 542991562, 547954679, 0.43, 1.28, 2.03, 0.22, 0.06, 0.11, 42.24
258938, 542993576, 547956693, 0.31, 0.75, -0.35, -0.02, 0.72, 0.10, 42.26
258939, 542995560, 547958677, -0.61, 0.09, 2.81, -0.21, 0.69, 0.01, 42.29
258940, 542997574, 547960691, -0.29, -0.97, 0.28, -0.24, 0.31, -0.09, 42.30
258941, 542999558, 547962675, -0.27, -0.95, 0.79, 0.01, -0.34, -0.12, 42.28
258942, 543001573, 547964690, 0.37, -0.58, 1.62, 0.45, -0.92, -0.05, 42.29
258943, 543003587, 547966704, 0.73, 0.48, 0.01, 0.46, -0.41, 0.04, 42.28
258944, 543005571, 547968688, 0.31, 1.32, 1.93, 0.23, 0.18, 0.13, 42.29
258945, 543007585, 547970702, 0.22, 0.84, -0.50, -0.01, 0.87, 0.10, 42.28
258946, 543009569, 547972686, -0.62, 0.14, 3.04, -0.23, 0.72, 0.01, 42.22
258947, 543011583, 547974700, -0.16, -0.80, 0.64, -0.27, 0.26, -0.10, 42.23
258948, 543013567, 547976684, -0.33, -1.12, 0.05, -0.03, -0.40, -0.12, 42.24
258949, 543015582, 547978699, 0.45, -0.55, 2.21, 0.54, -0.92, -0.05, 42.25
258950, 543017566, 547980683, 0.58, 0.37, -0.34, 0.42, -0.32, 0.05, 42.25
258951, 543019580, 547982697, 0.38, 1.28, 1.88, 0.18, 0.32, 0.15, 42.26
258952, 543021564, 547984681, 0.10, 0.85, -0.16, -0.04, 0.96, 0.11, 42.26
258953, 543023578, 547986695, -0.56, 0.12, 2.91, -0.22, 0.71, 0.01, 42.27
258954, 543025562, 547988679, -0.14, -0.79, 0.67, -0.19, 0.14, -0.09, 42.29
258955, 543027576, 547990693, -0.32, -1.08, -0.08, 0.01, -0.47, -0.13, 42.21
258956, 543029560, 547992677, 0.55, -0.38, 2.48, 0.56, -0.83, -0.07, 42.20
258957, 543031575, 547994692, 0.57, 0.42, -0.92, 0.32, -0.17, 0.04, 42.24
258958, 543033558, 547996675, 0.35, 1.14, 1.88, 0.14, 0.37, 0.13, 42.27
258959, 543035573, 547998690, 0.04, 0.88, 0.57, -0.06, 0.89, 0.10, 42.30
258960, 543037587, 548000704, -0.52, -0.07, 2.36, -0.22, 0.68, 0.02, 42.24
258961, 543039571, 548002688, -0.12, -0.85, 0.33, -0.14, 0.11, -0.06, 42.24
258962, 543041585, 548004702, -0.21, -1.00, 0.77, 0.05, -0.49, -0.10, 42.22
258963, 543043569, 548006686, 0.45, -0.35, 2.04, 0.51, -0.69, -0.04, 42.25
258964, 543045584, 548008701, 0.50, 0.55, -0.93, 0.25, -0.04, 0.05, 42.20
258965, 543047568, 548010685, 0.19, 1.07, 1.55, 0.18, 0.42, 0.12, 42.17
258966, 543049582, 548012699, 0.05, 0.96, 1.09, -0.05, 0.82, 0.08, 42.20
258967, 543051566, 548014683, -0.43, -0.05, 2.25, -0.26, 0.62, -0.01, 42.24
258968, 543053580, 548016697, -0.05, -0.77, 0.21, -0.13, 0.07, -0.09, 42.27
258969, 543055564, 548018681, -0.19, -1.01, 1.28, 0.12, -0.54, -0.11, 42.28
258970, 543057578, 548020695, 0.36, -0.55, 1.19, 0.42, -0.57, -0.04, 42.24
258971, 543059562, 548022679, 0.40, 0.54, -0.36, 0.17, 0.08, 0.07, 42.23
258972, 543061577, 548024694, 0.13, 0.88, 1.28, 0.20, 0.44, 0.14, 42.25
258973, 543063560, 548026677, 0.06, 1.06, 1.54, 0.01, 0.72, 0.11, 42.28
258974, 543065575, 548028692, -0.41, 0.03, 1.99, -0.19, 0.55, 0.00, 42.26
258975, 543067559, 548030676, -0.02, -0.50, -0.17, -0.09, 0.04, -0.11, 42.25
258976, 543069573, 548032690, -0.10, -0.89, 1.88, 0.14, -0.59, -0.14, 42.24
258977, 543071587, 548034704, 0.39, -0.63, 0.99, 0.29, -0.51, -0.06, 42.24
258978, 543073571, 548036688, 0.36, 0.39, -0.31, 0.08, 0.15, 0.05, 42.20
258979, 543075586, 548038703, 0.08, 0.65, 0.87, 0.19, 0.49, 0.13, 42.18
258980, 543077570, 548040687, -0.03, 0.87, 1.65, 0.07, 0.62, 0.12, 42.28
258981, 543079584, 548042701, -0.39, 0.16, 2.38, -0.12, 0.42, 0.03, 42.27
258982, 543081568, 548044685, 0.01, -0.44, -0.71, -0.10, 0.06, -0.09, 42.27
258983, 543083582, 548046699, -0.08, -0.74, 2.01, 0.14, -0.55, -0.12, 42.27
258984, 543085566, 548048683, 0.42, -0.38, 1.15, 0.24, -0.50, -0.06, 42.27
258985, 543087580, 548050697, 0.31, 0.29, -0.04, 0.03, 0.12, 0.03, 42.23
258986, 543089564, 548052681, 0.06, 0.58, 0.60, 0.17, 0.51, 0.11, 42.26
258987, 543091579, 548054696, -0.04, 0.65, 1.50, 0.08, 0.59, 0.11, 42.24
258988, 543093562, 548056679, -0.40, 0.08, 2.36, -0.08, 0.33, 0.02, 42.25
258989, 543095577, 548058694, 0.07, -0.41, -0.37, -0.11, -0.00, -0.09, 42.30
258990, 543097561, 548060678, -0.02, -0.68, 2.15, 0.15, -0.56, -0.10, 42.30
258991, 543099575, 548062692, 0.33, -0.28, 0.81, 0.24, -0.46, -0.04, 42.28
258992, 543101559, 548064676, 0.22, 0.40, -0.13, 0.07, 0.17, 0.04, 42.25
258993, 543103573, 548066690, -0.03, 0.61, 0.71, 0.15, 0.55, 0.09, 42.24
258994, 543105588, 548068705, -0.02, 0.61, 1.34, 0.02, 0.51, 0.07, 42.22
258995, 543107572, 548070689, -0.30, 0.00, 2.39, -0.06, 0.12, -0.00, 42.19
258996, 543109586, 548072703, 0.15, -0.53, 0.09, -0.10, -0.16, -0.08, 42.24
258997, 543111570, 548074687, 0.09, -0.71, 1.82, 0.16, -0.51, -0.06, 42.25
258998, 543113584, 548076701, 0.23, -0.28, 0.47, 0.21, -0.32, 0.02, 42.22
258999, 543115568, 548078685, 0.14, 0.48, 0.27, 0.08, 0.25, 0.08, 42.25
259000, 543117582, 548080699, -0.04, 0.75, 0.77, 0.15, 0.57, 0.08, 42.24
259001, 543119566, 548082683, -0.11, 0.57, 0.79, 0.00, 0.43, 0.03, 42.28
259002, 543121581, 548084698, -0.19, -0.08, 2.74, -0.03, -0.06, -0.05, 42.31
259003, 543123564, 548086681, 0.24, -0.53, 0.44, -0.11, -0.31, -0.11, 42.28
259004, 543125579, 548088696, 0.08, -0.78, 1.49, 0.14, -0.43, -0.06, 42.28
259005, 543127563, 548090680, 0.30, -0.09, 0.61, 0.19, -0.15, 0.03, 42.27
259006, 543129577, 548092694, 0.01, 0.41, -0.02, 0.12, 0.29, 0.09, 42.24
259007, 543131561, 548094678, -0.10, 0.83, 1.10, 0.14, 0.46, 0.10, 42.23
259008, 543133575, 548096692, -0.08, 0.47, 0.78, -0.05, 0.33, 0.04, 42.21
259009, 543135620, 548098737, -0.05, -0.24, 2.62, 0.01, -0.12, -0.04, 42.23
259010, 543137573, 548100690, 0.16, -0.59, 0.40, -0.10, -0.34, -0.09, 42.27
259011, 543139557, 548102674, 0.11, -0.60, 1.50, 0.14, -0.35, -0.05, 42.26
259012, 543141572, 548104689, 0.34, 0.09, 0.80, 0.18, -0.07, 0.02, 42.21
259013, 543143586, 548106703, -0.05, 0.37, -0.21, 0.13, 0.32, 0.06, 42.29
259014, 543145570, 548108687, -0.06, 0.92, 1.35, 0.11, 0.40, 0.06, 42.30
259015, 543147584, 548110701, -0.14, 0.22, 0.69, -0.08, 0.26, 0.00, 42.27
259016, 543149568, 548112685, 0.02, -0.27, 2.69, 0.06, -0.15, -0.06, 42.25
259017, 543151583, 548114700, 0.09, -0.67, 0.29, -0.06, -0.38, -0.07, 42.21
259018, 543153566, 548116683, 0.20, -0.46, 1.65, 0.13, -0.30, -0.02, 42.22
259019, 543155581, 548118698, 0.31, 0.11, 0.55, 0.16, -0.02, 0.04, 42.19
259020, 543157565, 548120682, -0.04, 0.96, 1.68, 0.10, 0.35, 0.06, 42.29
259021, 543159579, 548122696, -0.11, 0.16, 0.55, -0.07, 0.22, -0.02, 42.31
259022, 543161563, 548124680, 0.01, -0.40, 2.03, 0.06, -0.17, -0.08, 42.26
259023, 543163577, 548126694, 0.08, -0.74, 0.47, -0.07, -0.40, -0.08, 42.21
259024, 543165561, 548128678, 0.23, -0.36, 2.03, 0.11, -0.29, -0.03, 42.23
259025, 543167575, 548130692, 0.21, 0.19, 0.35, 0.14, 0.02, 0.04, 42.24
259026, 543169559, 548132676, -0.07, 0.50, 0.01, 0.20, 0.42, 0.08, 42.24
259027, 543171574, 548134691, -0.11, 0.94, 1.64, 0.11, 0.32, 0.06, 42.26
259028, 543173558, 548136675, -0.10, 0.06, 0.78, -0.08, 0.16, -0.02, 42.26
259029, 543175572, 548138689, 0.00, -0.51, 1.95, 0.00, -0.22, -0.08, 42.25
259030, 543177586, 548140703, 0.30, -0.75, 0.40, -0.06, -0.44, -0.06, 42.28
259031, 543179570, 548142687, 0.19, -0.38, 1.82, 0.15, -0.30, 0.01, 42.24
259032, 543181585, 548144702, 0.23, 0.34, 0.53, 0.17, 0.08, 0.07, 42.24
259033, 543183568, 548146685, -0.01, 0.75, 0.05, 0.18, 0.52, 0.08, 42.22
259034, 543185583, 548148700, -0.11, 0.97, 1.38, 0.08, 0.34, 0.04, 42.21
259035, 543187567, 548150684, -0.05, -0.04, 1.08, -0.04, 0.09, -0.07, 42.27
259036, 543189581, 548152698, -0.11, -0.68, 1.76, -0.06, -0.28, -0.12, 42.26
259037, 543191565, 548154682, 0.26, -0.88, 0.49, -0.07, -0.42, -0.07, 42.27
259038, 543193579, 548156696, 0.11, -0.49, 1.81, 0.17, -0.27, 0.02, 42.28
259039, 543195563, 548158680, 0.27, 0.45, 0.63, 0.22, 0.16, 0.11, 42.25
259040, 543197577, 548160694, -0.00, 1.01, 0.20, 0.18, 0.57, 0.11, 42.21
259041, 543199561, 548162678, -0.04, 1.06, 1.03, 0.09, 0.29, 0.04, 42.21
259042, 543201576, 548164693, -0.02, 0.01, 1.30, -0.01, -0.03, -0.08, 42.21
259043, 543203560, 548166677, -0.09, -0.72, 1.87, -0.15, -0.32, -0.13, 42.24
259044, 543205574, 548168691, 0.26, -1.04, 0.17, -0.11, -0.31, -0.08, 42.27
259045, 543207558, 548170675, 0.01, -0.70, 1.83, 0.16, -0.20, 0.03, 42.26
259046, 543209572, 548172689, 0.33, 0.35, 0.55, 0.27, 0.17, 0.12, 42.25
259047, 543211587, 548174704, -0.06, 1.09, 0.58, 0.19, 0.54, 0.12, 42.20
259048, 543213570, 548176687, 0.06, 1.15, 0.82, 0.13, 0.30, 0.03, 42.24
259049, 543215585, 548178702, 0.05, 0.14, 1.28, 0.04, -0.04, -0.09, 42.25
259050, 543217569, 548180686, -0.07, -0.63, 1.91, -0.21, -0.34, -0.15, 42.21
259051, 543219583, 548182700, 0.20, -1.06, 0.04, -0.17, -0.27, -0.11, 42.24
259052, 543221567, 548184684, 0.03, -0.75, 1.90, 0.13, -0.16, 0.03, 42.26
259053, 543223581, 548186698, 0.27, 0.16, 0.38, 0.30, 0.19, 0.14, 42.29
259054, 543225565, 548188682, -0.09, 1.10, 0.81, 0.19, 0.52, 0.14, 42.31
259055, 543227579, 548190696, 0.02, 1.04, 0.68, 0.15, 0.32, 0.05, 42.27
259056, 543229563, 548192680, 0.03, 0.21, 1.23, 0.06, -0.04, -0.07, 42.26
259057, 543231608, 548194725, -0.08, -0.49, 1.92, -0.19, -0.35, -0.15, 42.29
259058, 543233562, 548196679, 0.26, -0.93, 0.29, -0.19, -0.23, -0.13, 42.27
259059, 543235576, 548198693, 0.07, -0.73, 1.87, 0.10, -0.15, 0.00, 42.25
259060, 543237560, 548200677, 0.25, 0.15, 0.18, 0.29, 0.21, 0.12, 42.25
259061, 543239574, 548202691, -0.10, 1.00, 0.89, 0.18, 0.51, 0.13, 42.30
259062, 543241558, 548204675, 0.01, 0.98, 1.04, 0.15, 0.35, 0.05, 42.24
259063, 543243572, 548206689, -0.01, 0.22, 0.99, 0.05, -0.03, -0.06, 42.27
259064, 543245587, 548208704, -0.11, -0.49, 1.93, -0.18, -0.36, -0.13, 42.23
259065, 543247571, 548210688, 0.30, -0.86, 0.37, -0.20, -0.22, -0.12, 42.21
259066, 543249585, 548212702, 0.10, -0.59, 1.69, 0.09, -0.11, -0.00, 42.27
259067, 543251569, 548214686, 0.10, 0.20, -0.14, 0.28, 0.22, 0.10, 42.22
259068, 543253583, 548216700, -0.02, 0.98, 1.33, 0.19, 0.43, 0.10, 42.22
259069, 543255567, 548218684, 0.03, 0.77, 1.00, 0.11, 0.29, 0.02, 42.25
259070, 543257581, 548220698, 0.06, 0.14, 1.17, -0.03, -0.02, -0.05, 42.22
259071, 543259565, 548222682, -0.00, -0.53, 1.75, -0.16, -0.33, -0.10, 42.23
259072, 543261580, 548224697, 0.27, -0.82, 0.32, -0.16, -0.18, -0.08, 42.32
259073, 543263563, 548226680, -0.01, -0.53, 1.67, 0.11, -0.03, 0.02, 42.33
259074, 543265578, 548228695, 0.09, 0.38, -0.10, 0.24, 0.25, 0.09, 42.30
259075, 543267562, 548230679, 0.01, 0.93, 1.29, 0.20, 0.34, 0.07, 42.29
259076, 543269576, 548232693, 0.06, 0.79, 1.13, 0.11, 0.19, 0.00, 42.23
259077, 543271560, 548234677, 0.05, 0.04, 0.76, -0.06, -0.02, -0.06, 42.28
259078, 543273574, 548236691, -0.06, -0.64, 1.74, -0.17, -0.26, -0.09, 42.27
259079, 543275558, 548238675, 0.23, -0.76, 0.76, -0.18, -0.13, -0.06, 42.23
259080, 543277573, 548240690, -0.10, -0.57, 1.57, 0.09, 0.01, 0.04, 42.25
259081, 543279587, 548242704, 0.18, 0.49, 0.03, 0.22, 0.26, 0.08, 42.25
259082, 543281571, 548244688, 0.07, 0.89, 1.17, 0.25, 0.24, 0.05, 42.23
259083, 543283585, 548246702, 0.09, 0.74, 1.05, 0.13, 0.07, -0.00, 42.21
259084, 543285569, 548248686, 0.04, 0.14, 0.91, -0.11, 0.00, -0.06, 42.22
259085, 543287583, 548250700, -0.06, -0.65, 1.47, -0.19, -0.14, -0.09, 42.23
259086, 543289567, 548252684, 0.25, -0.68, 0.98, -0.19, -0.07, -0.05, 42.22
259087, 543291582, 548254699, -0.17, -0.55, 1.70, 0.08, 0.02, 0.04, 42.24
259088, 543293565, 548256682, 0.18, 0.41, -0.18, 0.20, 0.25, 0.06, 42.26
259089, 543295580, 548258697, 0.01, 0.73, 1.07, 0.27, 0.17, 0.04, 42.28
259090, 543297564, 548260681, 0.09, 0.69, 1.28, 0.12, -0.02, 0.01, 42.29
259091, 543299578, 548262695, 0.10, 0.10, 0.76, -0.14, 0.00, -0.03, 42.29
259092, 543301592, 548264709, -0.03, -0.48, 1.52, -0.19, -0.05, -0.06, 42.27
259093, 543303576, 548266693, 0.29, -0.53, 0.94, -0.15, 0.00, -0.02, 42.25
259094, 543305560, 548268677, -0.21, -0.44, 1.81, 0.07, 0.05, 0.04, 42.25
259095, 543307575, 548270692, 0.21, 0.31, -0.12, 0.16, 0.25, 0.02, 42.27
259096, 543309558, 548272675, 0.03, 0.60, 0.97, 0.24, 0.11, -0.00, 42.31
259097, 543311573, 548274690, 0.11, 0.54, 1.21, 0.11, -0.10, -0.00, 42.29
259098, 543313587, 548276704, 0.09, 0.02, 0.73, -0.12, -0.01, -0.02, 42.30
259099, 543315571, 548278688, -0.05, -0.42, 1.44, -0.18, 0.03, -0.03, 42.27
259100, 543317585, 548280702, 0.21, -0.44, 1.02, -0.15, 0.11, 0.01, 42.26
259101, 543319569, 548282686, -0.27, -0.19, 1.89, 0.08, 0.10, 0.04, 42.26
259102, 543321584, 548284701, 0.20, 0.30, -0.02, 0.16, 0.22, -0.01, 42.26
259103, 543323567, 548286684, 0.07, 0.53, 0.98, 0.22, 0.01, -0.03, 42.29
259104, 543325582, 548288699, 0.10, 0.39, 0.99, 0.08, -0.22, -0.01, 42.22
259105, 543327566, 548290683, 0.12, -0.14, 0.87, -0.11, -0.03, -0.00, 42.25
259106, 543329580, 548292697, 0.05, -0.31, 1.62, -0.17, 0.15, 0.00, 42.27
259107, 543331564, 548294681, 0.18, -0.39, 0.70, -0.16, 0.25, 0.04, 42.29
259108, 543333578, 548296695, -0.35, -0.11, 2.00, 0.09, 0.11, 0.04, 42.30
259109, 543335562, 548298679, 0.18, 0.34, 0.15, 0.16, 0.14, -0.04, 42.30
259110, 543337577, 548300694, 0.08, 0.45, 0.94, 0.22, -0.08, -0.06, 42.27
259111, 543339560, 548302677, 0.10, 0.30, 0.44, 0.08, -0.28, -0.03, 42.28
259112, 543341575, 548304692, 0.15, -0.18, 1.21, -0.08, -0.05, -0.01, 42.25
259113, 543343559, 548306676, 0.12, -0.15, 1.94, -0.18, 0.20, 0.01, 42.23
259114, 543345573, 548308690, -0.26, -0.03, 2.36, 0.14, 0.13, 0.04, 42.21
259115, 543347587, 548310704, 0.14, 0.23, 0.33, 0.16, 0.07, -0.04, 42.24
259116, 543349571, 548312688, -0.03, 0.28, 0.51, 0.17, -0.12, -0.05, 42.25
259117, 543351586, 548314703, 0.14, 0.32, 0.40, 0.08, -0.28, -0.02, 42.24
259118, 543353630, 548316747, 0.11, -0.26, 1.37, -0.03, -0.09, -0.00, 42.27
259119, 543355584, 548318701, 0.21, 0.07, 2.16, -0.17, 0.16, 0.03, 42.26
259120, 543357568, 548320685, -0.02, -0.33, -0.06, -0.19, 0.41, 0.06, 42.24
259121, 543359582, 548322699, -0.18, 0.02, 2.33, 0.20, 0.20, 0.02, 42.24
259122, 543361566, 548324683, 0.10, 0.22, 0.41, 0.13, 0.05, -0.06, 42.27
259123, 543363580, 548326697, -0.13, 0.14, 0.41, 0.11, -0.14, -0.07, 42.25
259124, 543365564, 548328681, 0.32, 0.21, 0.57, 0.08, -0.33, -0.03, 42.23
259125, 543367578, 548330695, 0.17, -0.34, 1.31, 0.00, -0.12, 0.01, 42.20
259126, 543369562, 548332679, 0.30, 0.13, 2.30, -0.16, 0.13, 0.08, 42.21
259127, 543371577, 548334694, -0.11, -0.19, -0.12, -0.16, 0.50, 0.09, 42.30
259128, 543373561, 548336678, -0.19, 0.12, 2.27, 0.23, 0.34, 0.02, 42.30
259129, 543375575, 548338692, -0.00, 0.35, 0.25, 0.11, 0.09, -0.07, 42.27
259130, 543377559, 548340676, -0.18, 0.18, 0.71, 0.07, -0.24, -0.11, 42.28
259131, 543379573, 548342690, 0.43, 0.01, 0.32, 0.07, -0.45, -0.07, 42.33
259132, 543381588, 548344705, 0.21, -0.45, 1.56, 0.01, -0.18, -0.00, 42.27
259133, 543383571, 548346688, 0.33, -0.04, 1.90, -0.16, 0.16, 0.10, 42.23
259134, 543385586, 548348703, -0.19, -0.02, 0.73, -0.11, 0.60, 0.13, 42.26
259135, 543387570, 548350687, -0.30, 0.13, 1.60, 0.23, 0.45, 0.05, 42.25
259136, 543389584, 548352701, -0.09, 0.33, 0.01, 0.13, 0.09, -0.05, 42.24
259137, 543391568, 548354685, -0.17, 0.35, 0.85, 0.09, -0.37, -0.10, 42.22
259138, 543393582, 548356699, 0.55, 0.04, 0.46, 0.06, -0.55, -0.09, 42.22
259139, 543395566, 548358683, 0.34, -0.43, 1.68, -0.01, -0.21, -0.01, 42.27
259140, 543397580, 548360697, 0.41, -0.11, 1.81, -0.18, 0.22, 0.09, 42.28
259141, 543399564, 548362681, -0.23, -0.16, 0.90, -0.04, 0.70, 0.12, 42.24
259142, 543401579, 548364696, -0.37, 0.15, 1.60, 0.18, 0.55, 0.05, 42.23
259143, 543403563, 548366680, -0.15, 0.18, -0.34, 0.11, 0.11, -0.04, 42.24
259144, 543405577, 548368694, -0.29, 0.34, 1.10, 0.15, -0.49, -0.09, 42.28
259145, 543407561, 548370678, 0.58, 0.12, 0.45, 0.11, -0.59, -0.08, 42.27
259146, 543409575, 548372692, 0.38, -0.23, 1.52, -0.03, -0.20, -0.01, 42.24
259147, 543411559, 548374676, 0.44, -0.05, 1.51, -0.19, 0.22, 0.08, 42.25
259148, 543413573, 548376690, -0.16, -0.12, 1.70, 0.03, 0.63, 0.11, 42.26
259149, 543415588, 548378705, -0.28, 0.01, 1.54, 0.13, 0.55, 0.05, 42.26
259150, 543417572, 548380689, -0.19, 0.06, -0.89, 0.09, 0.20, -0.02, 42.28
259151, 543419586, 548382703, -0.31, 0.22, 1.27, 0.19, -0.51, -0.05, 42.27
259152, 543421570, 548384687, 0.59, 0.04, 0.48, 0.14, -0.57, -0.06, 42.25
259153, 543423584, 548386701, 0.37, 0.06, 2.23, -0.06, -0.15, -0.02, 42.28
259154, 543425568, 548388685, 0.39, -0.04, 0.33, -0.15, 0.27, 0.04, 42.27
259155, 543427582, 548390699, -0.26, -0.08, 2.24, 0.13, 0.53, 0.05, 42.25
259156, 543429566, 548392683, -0.28, 0.06, 1.57, 0.10, 0.39, 0.00, 42.24
259157, 543431581, 548394698, -0.22, -0.03, -1.29, 0.03, 0.15, -0.04, 42.22
259158, 543433565, 548396682, -0.15, 0.12, 1.65, 0.20, -0.48, -0.03, 42.24
259159, 543435579, 548398696, 0.55, -0.09, 0.62, 0.17, -0.48, -0.01, 42.25
259160, 543437563, 548400680, 0.26, 0.14, 2.22, -0.08, -0.10, 0.03, 42.24
259161, 543439577, 548402694, 0.38, -0.00, 0.10, -0.09, 0.32, 0.06, 42.25
259162, 543441561, 548404678, -0.27, -0.08, 2.30, 0.18, 0.44, 0.04, 42.26
259163, 543443575, 548406692, -0.19, 0.13, 1.27, 0.06, 0.24, -0.03, 42.27
259164, 543445559, 548408676, -0.31, -0.11, -0.98, 0.03, 0.03, -0.07, 42.24
259165, 543447574, 548410691, 0.03, 0.14, 1.50, 0.21, -0.51, -0.05, 42.25
259166, 543449557, 548412674, 0.52, -0.02, 0.77, 0.19, -0.42, -0.01, 42.26
259167, 543451572, 548414689, 0.20, 0.21, 2.16, -0.07, -0.05, 0.04, 42.27
259168, 543453586, 548416703, 0.24, -0.09, 0.11, -0.09, 0.41, 0.06, 42.25
259169, 543455570, 548418687, -0.22, -0.15, 2.36, 0.16, 0.39, 0.03, 42.24
259170, 543457584, 548420701, -0.19, 0.07, 0.92, 0.07, 0.10, -0.02, 42.31
259171, 543459568, 548422685, -0.24, 0.03, -0.53, 0.10, -0.08, -0.05, 42.28
259172, 543461583, 548424700, 0.08, 0.14, 1.19, 0.26, -0.47, -0.04, 42.27
259173, 543463567, 548426684, 0.35, 0.02, 0.68, 0.16, -0.31, -0.00, 42.29
259174, 543465581, 548428698, 0.34, 0.25, 2.82, -0.09, -0.05, 0.03, 42.24
259175, 543467565, 548430682, 0.15, -0.25, -0.08, -0.08, 0.40, 0.03, 42.25
259176, 543469579, 548432696, -0.22, -0.21, 2.20, 0.18, 0.32, 0.01, 42.27
259177, 543471563, 548434680, -0.20, -0.01, 0.45, 0.15, 0.03, -0.02, 42.24
259178, 543473577, 548436694, -0.21, 0.12, -0.10, 0.16, -0.16, -0.04, 42.24
259179, 543475561, 548438678, 0.27, 0.36, 1.11, 0.23, -0.43, -0.02, 42.21
259180, 543477576, 548440693, 0.36, 0.12, 0.77, 0.11, -0.22, 0.01, 42.21
259181, 543479559, 548442676, 0.27, 0.11, 2.67, -0.06, -0.07, 0.04, 42.25
259182, 543481574, 548444691, 0.05, -0.27, 0.35, -0.08, 0.36, 0.02, 42.25
259183, 543483558, 548446675, -0.31, -0.41, 1.70, 0.14, 0.31, -0.00, 42.27
259184, 543485572, 548448689, -0.15, -0.04, 0.40, 0.20, 0.00, -0.02, 42.26
259185, 543487586, 548450703, -0.17, 0.15, 0.35, 0.25, -0.31, -0.02, 42.26
259186, 543489570, 548452687, 0.38, 0.49, 0.95, 0.25, -0.48, 0.01, 42.27
259187, 543491585, 548454702, 0.41, 0.22, 0.78, 0.07, -0.18, 0.02, 42.28
259188, 543493568, 548456685, 0.28, 0.19, 2.59, -0.03, 0.02, 0.03, 42.25
259189, 543495583, 548458700, -0.13, -0.30, 0.65, -0.06, 0.45, -0.01, 42.28
259190, 543497567, 548460684, -0.39, -0.40, 1.32, 0.06, 0.34, -0.04, 42.27
259191, 543499581, 548462698, -0.21, -0.18, 0.02, 0.20, -0.10, -0.05, 42.28
259192, 543501565, 548464682, -0.10, 0.06, 1.06, 0.33, -0.53, -0.02, 42.23
259193, 543503579, 548466696, 0.52, 0.45, 0.58, 0.26, -0.53, 0.03, 42.20
259194, 543505563, 548468680, 0.52, 0.38, 1.40, 0.05, -0.07, 0.06, 42.28
259195, 543507578, 548470695, 0.20, 0.18, 1.80, -0.02, 0.20, 0.06, 42.29
259196, 543509561, 548472678, -0.22, -0.12, 1.28, -0.02, 0.47, 0.01, 42.25
259197, 543511576, 548474693, -0.44, -0.38, 1.15, 0.04, 0.25, -0.06, 42.27
259198, 543513560, 548476677, -0.23, -0.30, -0.42, 0.20, -0.22, -0.08, 42.28
259199, 543515574, 548478691, -0.00, -0.01, 1.33, 0.37, -0.65, -0.04, 42.22
259200, 543517558, 548480675, 0.55, 0.33, 0.34, 0.25, -0.52, 0.04, 42.25
259201, 543519572, 548482689, 0.52, 0.45, 2.22, 0.03, 0.02, 0.08, 42.28
259202, 543521587, 548484704, 0.15, 0.07, 0.98, -0.04, 0.33, 0.07, 42.27
259203, 543523570, 548486687, -0.23, -0.07, 1.77, 0.05, 0.46, 0.01, 42.31
259204, 543525585, 548488702, -0.39, -0.25, 1.05, 0.05, 0.13, -0.07, 42.31
259205, 543527569, 548490686, -0.20, -0.30, -0.87, 0.20, -0.29, -0.10, 42.27
259206, 543529583, 548492700, 0.08, 0.01, 1.40, 0.39, -0.70, -0.04, 42.27
259207, 543531567, 548494684, 0.57, 0.35, 0.79, 0.22, -0.49, 0.05, 42.27
259208, 543533581, 548496698, 0.01, -0.05, 0.53, -0.08, 0.47, 0.08, 42.26
259209, 543535565, 548498682, -0.23, -0.25, 1.66, 0.07, 0.50, 0.02, 42.28
259210, 543537580, 548500697, -0.47, -0.19, 0.85, 0.07, 0.00, -0.07, 42.27
259211, 543539563, 548502680, -0.05, -0.18, -0.74, 0.25, -0.39, -0.10, 42.27
259212, 543541578, 548504695, 0.27, 0.26, 1.75, 0.40, -0.77, -0.03, 42.25
259213, 543543562, 548506679, 0.66, 0.37, 0.63, 0.20, -0.47, 0.05, 42.24
259214, 543545576, 548508693, 0.50, 0.33, 2.57, 0.05, 0.11, 0.09, 42.30
259215, 543547560, 548510677, -0.12, -0.15, 0.46, -0.14, 0.61, 0.09, 42.27
259216, 543549574, 548512691, -0.36, -0.28, 1.42, 0.06, 0.62, 0.01, 42.24
259217, 543551558, 548514675, -0.62, -0.21, 0.99, 0.13, -0.06, -0.06, 42.24
259218, 543553572, 548516689, 0.02, -0.15, -0.43, 0.30, -0.48, -0.10, 42.29
259219, 543555587, 548518704, 0.26, 0.34, 1.42, 0.35, -0.81, -0.04, 42.23
259220, 543557571, 548520688, 0.78, 0.30, 0.37, 0.21, -0.47, 0.03, 42.27
259221, 543559585, 548522702, 0.41, 0.35, 3.29, 0.09, 0.06, 0.08, 42.24
259222, 543561569, 548524686, -0.10, -0.16, 0.34, -0.16, 0.67, 0.08, 42.24
259223, 543563583, 548526700, -0.46, -0.38, 0.66, 0.02, 0.68, 0.01, 42.25
259224, 543565567, 548528684, -0.62, -0.22, 1.25, 0.19, -0.13, -0.05, 42.26
259225, 543567582, 548530699, 0.10, -0.08, 0.08, 0.35, -0.60, -0.08, 42.24
259226, 543569565, 548532682, 0.32, 0.45, 1.00, 0.31, -0.80, -0.02, 42.30
259227, 543571580, 548534697, 0.86, 0.28, 0.53, 0.25, -0.39, 0.03, 42.24
259228, 543573564, 548536681, 0.30, 0.30, 3.18, 0.08, 0.12, 0.07, 42.23
259229, 543575578, 548538695, -0.13, -0.22, 0.40, -0.18, 0.72, 0.05, 42.26
259230, 543577562, 548540679, -0.48, -0.35, 0.79, -0.05, 0.64, -0.01, 42.27
259231, 543579576, 548542693, -0.43, -0.26, 1.16, 0.27, -0.24, -0.06, 42.29
259232, 543581560, 548544677, 0.12, 0.15, 0.47, 0.44, -0.69, -0.06, 42.28
259233, 543583574, 548546691, 0.29, 0.53, 0.43, 0.28, -0.72, -0.01, 42.27
259234, 543585558, 548548675, 0.88, 0.30, 0.78, 0.20, -0.21, 0.02, 42.30
259235, 543587573, 548550690, 0.14, 0.08, 2.93, -0.03, 0.19, 0.07, 42.27
259236, 543589587, 548552704, -0.09, -0.25, 0.94, -0.17, 0.69, 0.05, 42.27
259237, 543591571, 548554688, -0.53, -0.48, 0.52, -0.03, 0.50, -0.01, 42.25
259238, 543593585, 548556702, -0.34, -0.25, 0.91, 0.36, -0.28, -0.04, 42.26
259239, 543595569, 548558686, 0.08, 0.32, 0.68, 0.48, -0.68, -0.03, 42.25
259240, 543597583, 548560700, 0.39, 0.66, 0.29, 0.27, -0.59, -0.02, 42.24
259241, 543599567, 548562684, 0.82, 0.43, 1.39, 0.13, -0.09, -0.01, 42.23
259242, 543601582, 548564699, 0.07, -0.18, 2.25, -0.09, 0.19, 0.03, 42.26
259243, 543603566, 548566683, -0.12, -0.39, 1.15, -0.12, 0.54, 0.03, 42.25
259244, 543605580, 548568697, -0.58, -0.59, 0.43, 0.01, 0.39, 0.00, 42.32
259245, 543607564, 548570681, -0.25, -0.18, 0.68, 0.42, -0.20, -0.01, 42.29
259246, 543609578, 548572695, 0.11, 0.44, 0.42, 0.44, -0.57, 0.01, 42.27
259247, 543611562, 548574679, 0.57, 0.85, 1.15, 0.27, -0.55, 0.00, 42.26
259248, 543613576, 548576693, 0.70, 0.45, 1.29, 0.07, -0.13, -0.01, 42.26
259249, 543615560, 548578677, 0.04, -0.30, 1.92, -0.12, 0.21, 0.02, 42.27
259250, 543617575, 548580692, -0.15, -0.60, 1.06, -0.09, 0.53, 0.02, 42.24
259251, 543619558, 548582675, -0.57, -0.64, 0.42, 0.03, 0.36, -0.01, 42.27
259252, 543621573, 548584690, -0.18, -0.05, 0.93, 0.42, -0.18, -0.01, 42.29
259253, 543623587, 548586704, 0.08, 0.55, 0.03, 0.42, -0.55, 0.01, 42.26
259254, 543625571, 548588688, 0.61, 0.92, 1.88, 0.33, -0.54, -0.00, 42.30
259255, 543627585, 548590702, 0.59, 0.43, 1.02, 0.02, -0.13, 0.01, 42.28
259256, 543629569, 548592686, -0.04, -0.28, 1.71, -0.15, 0.31, 0.02, 42.30
259257, 543631584, 548594701, -0.19, -0.73, 0.78, -0.09, 0.56, 0.01, 42.28
259258, 543633568, 548596685, -0.53, -0.66, 0.89, 0.05, 0.27, -0.00, 42.22
259259, 543635582, 548598699, -0.16, -0.05, 0.76, 0.40, -0.26, 0.01, 42.27
259260, 543637566, 548600683, 0.22, 0.63, 0.13, 0.40, -0.53, 0.02, 42.26
259261, 543639580, 548602697, 0.58, 0.88, 2.18, 0.36, -0.46, 0.00, 42.27
259262, 543641564, 548604681, 0.49, 0.53, 0.81, -0.03, -0.01, 0.01, 42.27
259263, 543643578, 548606695, -0.10, -0.27, 1.44, -0.17, 0.40, -0.00, 42.29
259264, 543645562, 548608679, -0.20, -0.78, 0.54, -0.09, 0.46, -0.03, 42.24
259265, 543647577, 548610694, -0.42, -0.72, 1.17, 0.09, 0.07, -0.02, 42.28
259266, 543649560, 548612677, -0.05, -0.03, 1.06, 0.35, -0.37, 0.02, 42.29
259267, 543651575, 548614692, 0.30, 0.50, 0.06, 0.39, -0.42, 0.04, 42.30
259268, 543653559, 548616676, 0.50, 0.91, 1.95, 0.39, -0.29, 0.04, 42.28
259269, 543655573, 548618690, 0.37, 0.58, 0.90, -0.03, 0.11, 0.05, 42.28
259270, 543657587, 548620704, -0.14, -0.20, 1.42, -0.19, 0.42, -0.01, 42.24
259271, 543659571, 548622688, -0.20, -0.83, 0.07, -0.11, 0.33, -0.05, 42.24
259272, 543661586, 548624703, -0.31, -0.67, 1.89, 0.14, -0.08, -0.05, 42.25
259273, 543663570, 548626687, -0.04, -0.07, 0.64, 0.33, -0.40, 0.00, 42.29
259274, 543665584, 548628701, 0.37, 0.52, 0.21, 0.39, -0.32, 0.04, 42.28
259275, 543667568, 548630685, 0.41, 0.88, 1.99, 0.34, -0.22, 0.06, 42.27
259276, 543669582, 548632699, 0.26, 0.52, 0.91, -0.04, 0.13, 0.07, 42.29
259277, 543671566, 548634683, -0.22, -0.16, 1.54, -0.19, 0.44, 0.00, 42.30
259278, 543673580, 548636697, -0.23, -0.84, -0.17, -0.12, 0.33, -0.05, 42.30
259279, 543675564, 548638681, -0.29, -0.60, 2.10, 0.19, -0.17, -0.04, 42.25
259280, 543677579, 548640696, 0.04, 0.04, 0.38, 0.36, -0.50, 0.00, 42.27
259281, 543679562, 548642679, 0.46, 0.55, 0.71, 0.43, -0.32, 0.02, 42.25
259282, 543681577, 548644694, 0.51, 0.91, 1.67, 0.24, -0.14, 0.06, 42.25
259283, 543683561, 548646678, 0.22, 0.28, 0.67, -0.08, 0.23, 0.06, 42.29
259284, 543685575, 548648692, -0.38, -0.23, 1.93, -0.20, 0.45, -0.00, 42.25
259285, 543687559, 548650676, -0.21, -0.87, -0.47, -0.10, 0.34, -0.06, 42.29
259286, 543689573, 548652690, -0.31, -0.37, 2.31, 0.26, -0.26, -0.04, 42.26
259287, 543691588, 548654705, 0.12, -0.03, -0.25, 0.40, -0.62, 0.00, 42.25
259288, 543693572, 548656689, 0.51, 0.77, 1.49, 0.42, -0.40, 0.02, 42.28
259289, 543695586, 548658703, 0.53, 0.79, 1.52, 0.12, -0.08, 0.07, 42.29
259290, 543697570, 548660687, 0.14, 0.21, 0.58, -0.10, 0.41, 0.07, 42.32
259291, 543699584, 548662701, -0.55, -0.38, 1.69, -0.17, 0.47, 0.00, 42.26
259292, 543701568, 548664685, -0.16, -0.91, -0.20, -0.08, 0.28, -0.06, 42.26
259293, 543703582, 548666699, -0.37, -0.42, 2.16, 0.27, -0.40, -0.05, 42.26
259294, 543705566, 548668683, 0.28, -0.08, -0.41, 0.44, -0.70, -0.01, 42.21
259295, 543707581, 548670698, 0.56, 0.88, 2.07, 0.43, -0.45, 0.04, 42.24
259296, 543709564, 548672681, 0.52, 0.89, 1.04, 0.09, -0.02, 0.09, 42.24
259297, 543711579, 548674696, -0.02, 0.23, 0.43, -0.11, 0.55, 0.06, 42.25
259298, 543713563, 548676680, -0.54, -0.35, 1.91, -0.17, 0.47, -0.02, 42.29
259299, 543715577, 548678694, -0.11, -0.83, 0.05, -0.10, 0.16, -0.09, 42.27
259300, 543717561, 548680678, -0.37, -0.47, 1.88, 0.27, -0.55, -0.06, 42.31
259301, 543719575, 548682692, 0.53, -0.05, 0.15, 0.50, -0.71, -0.01, 42.26
259302, 543721559, 548684676, 0.34, 0.77, 1.80, 0.40, -0.41, 0.06, 42.27
259303, 543723573, 548686690, -0.13, 0.24, 0.27, -0.13, 0.63, 0.07, 42.27
259304, 543725557, 548688674, -0.37, -0.36, 1.92, -0.14, 0.38, -0.03, 42.29
259305, 543727572, 548690689, -0.14, -0.66, 0.45, -0.07, 0.00, -0.11, 42.28
259306, 543729586, 548692703, -0.34, -0.48, 1.43, 0.30, -0.64, -0.08, 42.28
259307, 543731570, 548694687, 0.69, 0.03, 0.29, 0.54, -0.68, -0.03, 42.25
259308, 543733584, 548696701, 0.37, 0.74, 1.97, 0.33, -0.38, 0.07, 42.26
259309, 543735568, 548698685, 0.49, 0.69, 0.51, -0.00, 0.21, 0.13, 42.23
259310, 543737583, 548700700, -0.36, 0.12, 0.95, -0.17, 0.67, 0.09, 42.24
259311, 543739566, 548702683, -0.35, -0.46, 1.34, -0.08, 0.42, -0.00, 42.25
259312, 543741581, 548704698, -0.37, -0.47, 1.02, 0.01, -0.06, -0.08, 42.31
259313, 543743565, 548706682, -0.22, -0.38, 0.97, 0.33, -0.70, -0.09, 42.28
259314, 543745579, 548708696, 0.81, 0.20, 0.32, 0.53, -0.72, -0.06, 42.27
259315, 543747563, 548710680, 0.35, 0.59, 1.67, 0.25, -0.46, 0.04, 42.28
259316, 543749577, 548712694, 0.60, 0.57, 0.82, -0.02, 0.19, 0.11, 42.24
259317, 543751561, 548714678, -0.36, -0.04, 1.48, -0.17, 0.69, 0.09, 42.28
259318, 543753575, 548716692, -0.24, -0.51, 0.33, -0.07, 0.53, 0.02, 42.26
259319, 543755559, 548718676, -0.55, -0.37, 1.47, 0.08, -0.09, -0.04, 42.23
259320, 543757574, 548720691, -0.05, -0.29, 1.07, 0.39, -0.76, -0.07, 42.25
259321, 543759558, 548722675, 0.67, 0.36, 0.11, 0.46, -0.70, -0.07, 42.30
259322, 543761602, 548724719, 0.37, 0.64, 1.54, 0.18, -0.45, 0.02, 42.27
259323, 543763586, 548726703, 0.56, 0.35, 0.63, -0.01, 0.23, 0.08, 42.27
259324, 543765570, 548728687, -0.49, -0.02, 2.32, -0.14, 0.68, 0.07, 42.32
259325, 543767585, 548730702, -0.22, -0.54, -0.31, -0.08, 0.57, 0.01, 42.35
259326, 543769568, 548732685, -0.49, -0.26, 1.60, 0.12, -0.17, -0.03, 42.31
259327, 543771583, 548734700, 0.13, -0.33, 1.16, 0.46, -0.84, -0.06, 42.31
259328, 543773567, 548736684, 0.53, 0.41, 0.43, 0.37, -0.65, -0.04, 42.28
259329, 543775581, 548738698, 0.49, 0.58, 1.34, 0.11, -0.34, 0.05, 42.30
259330, 543777565, 548740682, 0.40, 0.30, 0.18, 0.02, 0.29, 0.10, 42.27
259331, 543779579, 548742696, -0.47, -0.01, 2.54, -0.08, 0.57, 0.07, 42.29
259332, 543781563, 548744680, -0.14, -0.39, -0.24, -0.09, 0.49, -0.01, 42.27
259333, 543783577, 548746694, -0.47, -0.25, 1.60, 0.14, -0.21, -0.05, 42.23
259334, 543785561, 548748678, 0.16, -0.35, 1.32, 0.47, -0.77, -0.07, 42.23
259335, 543787576, 548750693, 0.37, 0.50, 0.68, 0.27, -0.54, -0.04, 42.29
259336, 543789560, 548752677, 0.44, 0.49, 1.01, 0.11, -0.21, 0.04, 42.30
259337, 543791574, 548754691, 0.25, 0.23, 0.31, 0.05, 0.29, 0.08, 42.30
259338, 543793558, 548756675, -0.31, -0.15, 2.40, -0.05, 0.40, 0.06, 42.29
259339, 543795572, 548758689, 0.04, -0.39, -0.26, -0.11, 0.33, -0.00, 42.27
259340, 543797587, 548760704, -0.30, -0.19, 1.69, 0.18, -0.26, -0.02, 42.29
259341, 543799570, 548762687, 0.29, -0.16, 1.58, 0.50, -0.64, -0.02, 42.29
259342, 543801585, 548764702, 0.29, 0.56, 0.39, 0.21, -0.35, 0.00, 42.26
259343, 543803569, 548766686, 0.36, 0.50, 0.75, 0.08, -0.04, 0.04, 42.28
259344, 543805583, 548768700, 0.10, 0.23, 0.45, 0.01, 0.30, 0.05, 42.26
259345, 543807567, 548770684, -0.19, -0.36, 2.37, -0.06, 0.29, 0.02, 42.29
259346, 543809581, 548772698, 0.02, -0.44, -0.12, -0.11, 0.21, -0.02, 42.26
259347, 543811565, 548774682, -0.17, -0.24, 2.09, 0.24, -0.26, -0.02, 42.27
259348, 543813579, 548776696, 0.28, -0.15, 0.99, 0.50, -0.47, 0.01, 42.25
259349, 543815563, 548778680, 0.13, 0.62, 0.44, 0.16, -0.19, 0.04, 42.24
259350, 543817578, 548780695, 0.27, 0.69, 1.04, 0.08, 0.05, 0.06, 42.24
259351, 543819562, 548782679, 0.07, 0.17, 0.21, -0.00, 0.27, 0.04, 42.30
259352, 543821576, 548784693, -0.10, -0.32, 2.28, -0.03, 0.18, 0.00, 42.27
259353, 543823560, 548786677, -0.02, -0.42, 0.36, -0.10, 0.07, -0.04, 42.22
259354, 543825574, 548788691, -0.06, -0.34, 1.72, 0.26, -0.22, -0.03, 42.27
259355, 543827558, 548790675, 0.19, -0.11, 1.04, 0.45, -0.32, 0.01, 42.20
259356, 543829572, 548792689, 0.11, 0.61, 0.51, 0.13, -0.10, 0.04, 42.27
259357, 543831587, 548794704, 0.16, 0.59, 1.05, 0.08, 0.09, 0.06, 42.27
259358, 543833571, 548796688, 0.12, 0.12, 0.24, -0.02, 0.28, 0.03, 42.22
259359, 543835585, 548798702, 0.06, -0.26, 2.04, -0.00, 0.15, -0.01, 42.25
259360, 543837569, 548800686, 0.04, -0.42, 0.40, -0.04, -0.03, -0.04, 42.30
259361, 543839583, 548802700, 0.09, -0.27, 2.06, 0.26, -0.20, -0.03, 42.23
259362, 543841567, 548804684, 0.18, 0.12, 1.05, 0.36, -0.15, 0.02, 42.30
259363, 543843581, 548806698, 0.03, 0.41, 0.21, 0.11, 0.03, 0.05, 42.29
259364, 543845565, 548808682, -0.04, 0.51, 1.10, 0.08, 0.14, 0.05, 42.28
259365, 543847580, 548810697, 0.06, 0.08, 0.30, -0.03, 0.27, 0.01, 42.27
259366, 543849563, 548812680, 0.06, -0.36, 1.27, -0.01, 0.09, -0.02, 42.25
259367, 543851578, 548814695, 0.11, -0.37, 1.43, 0.03, -0.17, -0.04, 42.27
259368, 543853562, 548816679, 0.07, -0.19, 2.02, 0.28, -0.19, -0.01, 42.26
259369, 543855576, 548818693, 0.10, 0.21, 0.87, 0.29, 0.03, 0.04, 42.24
259370, 543857560, 548820677, 0.04, 0.38, 0.03, 0.09, 0.16, 0.05, 42.27
259371, 543859574, 548822691, 0.04, 0.53, 0.93, 0.09, 0.15, 0.04, 42.25
259372, 543861558, 548824675, 0.11, 0.18, 0.66, -0.05, 0.16, -0.00, 42.28
259373, 543863573, 548826690, 0.08, -0.47, 0.88, -0.01, 0.01, -0.04, 42.24
259374, 543865587, 548828704, 0.13, -0.37, 2.04, 0.10, -0.17, -0.04, 42.24
259375, 543867571, 548830688, -0.01, -0.32, 1.50, 0.23, -0.04, 0.01, 42.25
259376, 543869585, 548832702, 0.00, 0.21, 1.08, 0.22, 0.19, 0.05, 42.30
259377, 543871569, 548834686, -0.03, 0.37, 0.05, 0.08, 0.18, 0.06, 42.28
259378, 543873583, 548836700, 0.04, 0.53, 0.93, 0.14, 0.05, 0.03, 42.26
259379, 543875567, 548838684, 0.10, 0.36, 0.76, -0.00, 0.01, -0.02, 42.22
259380, 543877582, 548840699, 0.18, -0.42, 0.45, 0.01, -0.01, -0.06, 42.27
259381, 543879565, 548842682, 0.20, -0.24, 2.53, 0.10, -0.10, -0.05, 42.25
259382, 543881580, 548844697, -0.01, -0.41, 1.09, 0.13, 0.06, 0.01, 42.24
259383, 543883594, 548846711, -0.00, 0.12, 1.19, 0.16, 0.22, 0.05, 42.24
259384, 543885578, 548848695, -0.11, 0.13, 0.10, 0.09, 0.14, 0.07, 42.28
259385, 543887562, 548850679, 0.05, 0.44, 1.05, 0.17, 0.03, 0.05, 42.31
259386, 543889576, 548852693, 0.09, 0.39, 0.78, -0.01, -0.01, -0.00, 42.27
259387, 543891560, 548854677, 0.22, -0.27, 0.35, 0.07, 0.04, -0.07, 42.26
259388, 543893575, 548856692, 0.10, -0.02, 2.69, 0.15, -0.11, -0.07, 42.25
259389, 543895558, 548858675, -0.06, -0.34, 0.60, 0.08, 0.04, -0.02, 42.28
259390, 543897573, 548860690, -0.01, 0.08, 1.63, 0.07, 0.15, 0.02, 42.27
259391, 543899587, 548862704, -0.07, 0.02, 0.42, 0.06, 0.14, 0.05, 42.31
259392, 543901571, 548864688, 0.10, 0.36, 0.62, 0.17, 0.10, 0.06, 42.26
259393, 543903585, 548866702, 0.09, 0.29, 0.66, 0.03, -0.02, 0.02, 42.26
259394, 543905569, 548868686, 0.25, -0.30, 0.58, 0.10, 0.02, -0.05, 42.25
259395, 543907584, 548870701, 0.07, 0.03, 2.84, 0.12, -0.12, -0.04, 42.28
259396, 543909567, 548872684, 0.02, -0.25, 0.45, 0.06, 0.06, -0.01, 42.28
259397, 543911582, 548874699, -0.08, 0.17, 0.37, 0.09, 0.14, 0.03, 42.27
259398, 543913566, 548876683, -0.01, 0.36, 0.45, 0.14, 0.11, 0.02, 42.27
259399, 543915580, 548878697, 0.12, 0.25, 0.81, 0.05, -0.09, -0.02, 42.28
259400, 543917625, 548880742, 0.30, -0.30, 1.11, 0.08, -0.05, -0.08, 42.30
259401, 543919578, 548882695, -0.04, -0.22, 2.23, 0.05, -0.10, -0.03, 42.32
259402, 543921562, 548884679, -0.01, -0.36, 0.64, 0.06, 0.13, 0.03, 42.29
259403, 543923577, 548886694, -0.11, 0.06, 1.66, 0.09, 0.12, 0.08, 42.30
259404, 543925560, 548888677, -0.05, 0.35, 0.27, 0.13, 0.16, 0.07, 42.26
259405, 543927575, 548890692, 0.10, 0.55, 0.20, 0.12, 0.08, 0.01, 42.26
259406, 543929559, 548892676, 0.20, 0.32, 0.76, 0.09, -0.20, -0.06, 42.24
259407, 543931634, 548894751, 0.33, -0.13, 1.65, 0.06, -0.16, -0.11, 42.28
259408, 543933587, 548896704, -0.01, -0.42, 1.86, -0.03, -0.07, -0.06, 42.31
259409, 543935571, 548898688, -0.01, -0.49, 0.70, 0.02, 0.21, 0.03, 42.29
259410, 543937586, 548900703, -0.26, -0.18, 1.44, 0.09, 0.12, 0.10, 42.24
259411, 543939569, 548902686, -0.05, 0.40, 0.47, 0.14, 0.15, 0.10, 42.27
259412, 543941584, 548904701, 0.01, 0.60, 0.29, 0.10, 0.05, 0.04, 42.28
259413, 543943568, 548906685, 0.29, 0.44, 0.77, 0.18, -0.22, -0.05, 42.27
259414, 543945582, 548908699, 0.20, 0.11, 1.85, 0.07, -0.21, -0.12, 42.28
259415, 543947566, 548910683, -0.03, -0.40, 1.25, -0.10, -0.04, -0.09, 42.31
259416, 543949580, 548912697, 0.03, -0.49, 1.08, -0.04, 0.17, -0.01, 42.27
259417, 543951564, 548914681, -0.19, -0.36, 1.38, 0.07, 0.03, 0.08, 42.28
259418, 543953578, 548916695, 0.07, 0.31, 0.63, 0.14, 0.08, 0.11, 42.27
259419, 543955562, 548918679, 0.02, 0.49, 0.22, 0.09, 0.03, 0.07, 42.22
259420, 543957577, 548920694, 0.31, 0.45, 0.73, 0.24, -0.15, -0.01, 42.24
259421, 543959561, 548922678, 0.09, 0.29, 2.14, 0.08, -0.20, -0.07, 42.27
259422, 543961575, 548924692, 0.00, -0.20, 1.05, -0.13, 0.01, -0.09, 42.24
259423, 543963559, 548926676, -0.05, -0.47, 0.95, -0.08, 0.14, -0.05, 42.26
259424, 543965573, 548928690, -0.20, -0.45, 1.21, 0.05, -0.06, 0.02, 42.25
259425, 543967588, 548930705, 0.07, 0.22, 0.76, 0.11, -0.04, 0.06, 42.26
259426, 543969571, 548932688, 0.08, 0.35, 0.46, 0.08, -0.05, 0.04, 42.25
259427, 543971616, 548934733, 0.37, 0.39, 0.72, 0.25, -0.13, -0.00, 42.25
259428, 543973570, 548936687, 0.05, 0.24, 2.10, 0.07, -0.16, -0.02, 42.25
259429, 543975584, 548938701, 0.02, -0.14, 0.99, -0.14, 0.07, -0.04, 42.30
259430, 543977568, 548940685, -0.11, -0.42, 0.97, -0.10, 0.10, -0.01, 42.28
259431, 543979582, 548942699, -0.15, -0.37, 0.91, 0.08, -0.10, 0.03, 42.31
259432, 543981566, 548944683, 0.05, 0.23, 0.73, 0.11, -0.10, 0.04, 42.29
259433, 543983580, 548946697, 0.10, 0.37, 0.46, 0.11, -0.09, -0.00, 42.27
259434, 543985564, 548948681, 0.38, 0.37, 0.94, 0.21, -0.11, -0.04, 42.34
259435, 543987579, 548950696, 0.04, 0.10, 2.03, -0.00, -0.15, -0.05, 42.30
259436, 543989563, 548952680, 0.00, -0.16, 1.23, -0.14, 0.04, -0.04, 42.25
259437, 543991577, 548954694, -0.22, -0.48, 0.98, -0.08, 0.06, 0.01, 42.24
259438, 543993561, 548956678, -0.11, -0.26, 0.70, 0.10, -0.09, 0.05, 42.28
259439, 543995575, 548958692, 0.05, 0.27, 0.54, 0.12, -0.15, 0.06, 42.30
259440, 543997559, 548960676, 0.24, 0.41, 0.73, 0.15, -0.18, 0.02, 42.28
259441, 543999573, 548962690, 0.36, 0.43, 1.17, 0.16, -0.15, -0.03, 42.26
259442, 544001588, 548964705, 0.04, 0.09, 1.79, -0.04, -0.10, -0.04, 42.29
259443, 544003572, 548966689, -0.07, -0.20, 0.90, -0.15, 0.08, -0.04, 42.33
259444, 544005586, 548968703, -0.28, -0.47, 1.30, -0.08, 0.05, -0.01, 42.30
259445, 544007570, 548970687, -0.11, -0.18, 0.71, 0.07, -0.08, 0.01, 42.27
259446, 544009584, 548972701, 0.11, 0.23, 0.26, 0.12, -0.25, 0.02, 42.29
259447, 544011568, 548974685, 0.35, 0.30, 0.91, 0.21, -0.32, -0.00, 42.25
259448, 544013582, 548976699, 0.36, 0.41, 1.54, 0.12, -0.19, -0.01, 42.29
259449, 544015566, 548978683, 0.10, 0.21, 1.62, -0.06, 0.03, -0.00, 42.28
259450, 544017581, 548980698, -0.16, -0.23, 0.78, -0.15, 0.18, 0.00, 42.33
259451, 544019565, 548982682, -0.33, -0.39, 1.53, -0.06, 0.02, 0.01, 42.33
259452, 544021579, 548984696, -0.10, -0.12, 0.40, 0.04, -0.16, -0.00, 42.28
259453, 544023563, 548986680, 0.16, 0.06, 0.18, 0.14, -0.34, -0.01, 42.32
259454, 544025577, 548988694, 0.39, 0.26, 1.22, 0.24, -0.41, -0.02, 42.30
259455, 544027561, 548990678, 0.33, 0.40, 1.61, 0.06, -0.16, -0.00, 42.25
259456, 544029575, 548992692, 0.04, 0.19, 1.26, -0.08, 0.17, -0.00, 42.27
259457, 544031559, 548994676, -0.23, -0.24, 0.87, -0.13, 0.21, 0.01, 42.31
259458, 544033574, 548996691, -0.18, -0.33, 1.82, -0.02, -0.05, 0.01, 42.30
259459, 544035557, 548998674, -0.08, -0.11, 0.17, 0.01, -0.23, -0.01, 42.33
259460, 544037572, 549000689, 0.24, -0.08, -0.03, 0.17, -0.38, -0.02, 42.29
259461, 544039586, 549002703, 0.50, 0.41, 1.53, 0.26, -0.43, -0.00, 42.31
259462, 544041570, 549004687, 0.17, 0.27, 1.33, 0.03, -0.09, 0.02, 42.26
259463, 544043584, 549006701, -0.04, 0.27, 1.58, -0.09, 0.28, 0.00, 42.23
259464, 544045568, 549008685, -0.17, -0.26, 0.73, -0.12, 0.22, 0.00, 42.29
259465, 544047583, 549010700, -0.26, -0.37, 1.84, 0.00, -0.13, -0.00, 42.26
259466, 544049567, 549012684, -0.13, -0.15, 0.11, -0.01, -0.32, -0.03, 42.26
259467, 544051581, 549014698, 0.36, -0.14, -0.00, 0.23, -0.36, -0.04, 42.26
259468, 544053565, 549016682, 0.47, 0.46, 1.62, 0.30, -0.40, 0.00, 42.27
259469, 544055579, 549018696, 0.19, 0.34, 1.09, 0.03, -0.05, 0.03, 42.26
259470, 544057563, 549020680, -0.03, 0.35, 1.88, -0.13, 0.31, 0.01, 42.24
259471, 544059577, 549022694, -0.18, -0.23, 0.54, -0.15, 0.24, 0.01, 42.24
259472, 544061561, 549024678, -0.28, -0.25, 1.90, 0.03, -0.14, -0.00, 42.28
259473, 544063576, 549026693, -0.06, -0.19, 0.18, 0.00, -0.35, -0.05, 42.25
259474, 544065559, 549028676, 0.25, -0.33, -0.16, 0.23, -0.35, -0.06, 42.28
259475, 544067574, 549030691, 0.45, 0.51, 1.76, 0.24, -0.41, 0.00, 42.30
259476, 544069558, 549032675, 0.25, 0.24, 0.83, 0.05, -0.06, 0.04, 42.30
259477, 544071572, 549034689, -0.05, 0.35, 2.46, -0.08, 0.27, 0.05, 42.27
259478, 544073586, 549036703, -0.08, -0.17, 0.34, -0.14, 0.32, 0.05, 42.26
259479, 544075570, 549038687, -0.31, -0.11, 1.76, 0.05, -0.05, 0.01, 42.25
259480, 544077585, 549040702, -0.04, -0.21, 0.22, 0.06, -0.33, -0.07, 42.28
259481, 544079568, 549042685, 0.29, -0.25, -0.11, 0.21, -0.36, -0.10, 42.30
259482, 544081583, 549044700, 0.44, 0.40, 1.63, 0.17, -0.45, -0.04, 42.26
259483, 544083567, 549046684, 0.25, 0.01, 0.82, 0.08, -0.10, 0.02, 42.27
259484, 544085581, 549048698, -0.05, 0.40, 3.03, -0.05, 0.25, 0.07, 42.29
259485, 544087565, 549050682, -0.11, -0.18, -0.15, -0.15, 0.45, 0.09, 42.28
259486, 544089579, 549052696, -0.38, 0.01, 1.46, 0.06, 0.05, 0.03, 42.32
259487, 544091563, 549054680, 0.02, -0.14, 0.60, 0.13, -0.39, -0.06, 42.25
259488, 544093578, 549056695, 0.32, -0.14, 0.18, 0.16, -0.45, -0.10, 42.29
259489, 544095561, 549058678, 0.49, 0.30, 1.17, 0.14, -0.46, -0.04, 42.23
259490, 544097576, 549060693, 0.28, -0.10, 0.78, 0.12, -0.01, 0.02, 42.24
259491, 544099560, 549062677, -0.05, 0.32, 3.02, -0.06, 0.32, 0.08, 42.22
259492, 544101574, 549064691, -0.41, -0.01, 1.41, 0.08, 0.11, 0.00, 42.29
259493, 544103558, 549066675, 0.09, -0.11, 0.61, 0.21, -0.42, -0.10, 42.25
259494, 544105572, 549068689, 0.22, -0.05, 0.32, 0.14, -0.54, -0.12, 42.31
259495, 544107587, 549070704, 0.51, 0.23, 0.75, 0.14, -0.50, -0.05, 42.27
259496, 544109570, 549072687, 0.32, -0.12, 1.02, 0.12, 0.04, 0.03, 42.28
259497, 544111585, 549074702, -0.03, 0.27, 3.10, -0.06, 0.33, 0.13, 42.29
259498, 544113569, 549076686, -0.13, -0.05, -0.14, -0.16, 0.61, 0.13, 42.28
259499, 544115583, 549078700, -0.44, -0.07, 1.58, 0.08, 0.19, 0.02, 42.27
259500, 544117567, 549080684, 0.19, -0.04, 0.36, 0.22, -0.39, -0.09, 42.23
259501, 544119581, 549082698, 0.13, 0.08, 0.59, 0.12, -0.55, -0.13, 42.24
259502, 544121565, 549084682, 0.49, 0.18, 0.50, 0.16, -0.45, -0.09, 42.33
259503, 544123580, 549086697, 0.42, -0.04, 1.36, 0.11, 0.11, -0.01, 42.28
259504, 544125563, 549088680, -0.05, 0.16, 2.63, -0.09, 0.31, 0.11, 42.26
259505, 544127578, 549090695, -0.05, -0.11, 0.18, -0.14, 0.58, 0.13, 42.29
259506, 544129562, 549092679, -0.52, -0.19, 1.98, 0.09, 0.20, 0.05, 42.31
259507, 544131576, 549094693, 0.21, -0.07, -0.05, 0.23, -0.27, -0.03, 42.27
259508, 544133560, 549096677, -0.05, 0.19, 0.46, 0.16, -0.46, -0.07, 42.24
259509, 544135574, 549098691, 0.52, 0.28, 0.52, 0.20, -0.35, -0.06, 42.27
259510, 544137558, 549100675, 0.42, 0.29, 1.63, 0.06, 0.17, -0.01, 42.26
259511, 544139572, 549102689, -0.11, 0.09, 2.30, -0.14, 0.29, 0.07, 42.25
259512, 544141587, 549104704, 0.06, -0.21, 0.35, -0.11, 0.50, 0.06, 42.27
259513, 544143571, 549106688, -0.47, -0.46, 2.31, 0.07, 0.12, -0.00, 42.24
259514, 544145585, 549108702, 0.29, -0.17, -0.26, 0.19, -0.18, -0.04, 42.25
259515, 544147569, 549110686, -0.23, 0.10, 0.26, 0.19, -0.34, -0.03, 42.27
259516, 544149583, 549112700, 0.63, 0.44, 0.96, 0.27, -0.24, 0.00, 42.29
259517, 544151567, 549114684, 0.26, 0.62, 1.31, 0.04, 0.21, 0.04, 42.26
259518, 544153582, 549116699, -0.06, 0.27, 2.22, -0.15, 0.27, 0.07, 42.27
259519, 544155565, 549118682, 0.02, -0.24, 0.16, -0.11, 0.43, 0.02, 42.26
259520, 544157580, 549120697, -0.41, -0.59, 2.85, 0.02, 0.02, -0.04, 42.24
259521, 544159564, 549122681, 0.28, -0.53, -1.16, 0.11, -0.11, -0.06, 42.28
259522, 544161578, 549124695, -0.19, -0.06, 0.82, 0.18, -0.28, -0.02, 42.26
259523, 544163562, 549126679, 0.64, 0.41, 1.06, 0.33, -0.19, 0.04, 42.27
259524, 544165576, 549128693, 0.12, 0.87, 1.75, 0.06, 0.23, 0.08, 42.26
259525, 544167560, 549130677, 0.06, 0.45, 1.69, -0.06, 0.36, 0.08, 42.29
259526, 544169574, 549132691, -0.05, -0.16, -0.00, -0.08, 0.44, -0.01, 42.28
259527, 544171558, 549134675, -0.40, -0.60, 3.06, -0.04, -0.07, -0.09, 42.28
259528, 544173573, 549136690, 0.22, -0.57, -1.34, 0.04, -0.15, -0.11, 42.30
259529, 544175587, 549138704, -0.08, -0.21, 0.93, 0.17, -0.29, -0.04, 42.31
259530, 544177571, 549140688, 0.62, 0.38, 1.03, 0.35, -0.11, 0.07, 42.33
259531, 544179585, 549142702, -0.08, 0.88, 1.98, 0.04, 0.32, 0.14, 42.33
259532, 544181569, 549144686, 0.02, 0.46, 1.80, -0.03, 0.50, 0.11, 42.27
259533, 544183583, 549146700, -0.15, -0.21, -0.36, -0.09, 0.43, -0.01, 42.27
259534, 544185567, 549148684, -0.19, -0.49, 3.08, -0.01, -0.25, -0.10, 42.27
259535, 544187582, 549150699, 0.23, -0.61, -1.72, 0.03, -0.33, -0.13, 42.32
259536, 544189566, 549152683, 0.24, -0.02, 1.95, 0.20, -0.34, -0.04, 42.29
259537, 544191580, 549154697, 0.56, 0.45, 0.29, 0.32, 0.05, 0.07, 42.27
259538, 544193564, 549156681, -0.20, 0.80, 2.02, 0.00, 0.48, 0.14, 42.28
259539, 544195578, 549158695, -0.16, 0.28, 1.75, -0.04, 0.64, 0.08, 42.28
259540, 544197562, 549160679, -0.31, -0.32, -0.10, -0.14, 0.37, -0.04, 42.27
259541, 544199576, 549162693, -0.12, -0.61, 2.82, 0.03, -0.45, -0.12, 42.26
259542, 544201560, 549164677, 0.29, -0.58, -1.60, 0.09, -0.49, -0.12, 42.28
259543, 544203575, 549166692, 0.32, 0.25, 2.33, 0.29, -0.34, -0.02, 42.28
259544, 544205558, 549168675, 0.45, 0.57, -0.87, 0.28, 0.20, 0.10, 42.29
259545, 544207573, 549170690, -0.04, 0.89, 3.14, 0.01, 0.54, 0.15, 42.27
259546, 544209587, 549172704, -0.14, 0.12, 1.60, -0.13, 0.67, 0.06, 42.27
259547, 544211571, 549174688, -0.28, -0.57, -0.08, -0.25, 0.33, -0.05, 42.27
259548, 544213585, 549176702, -0.13, -0.76, 2.52, 0.08, -0.55, -0.11, 42.33
259549, 544215569, 549178686, 0.31, -0.60, -1.55, 0.20, -0.56, -0.10, 42.31
259550, 544217584, 549180701, 0.27, 0.49, 2.27, 0.40, -0.27, -0.00, 42.27
259551, 544219568, 549182685, 0.29, 0.83, -1.12, 0.19, 0.34, 0.09, 42.30
259552, 544221582, 549184699, -0.08, 0.94, 3.81, -0.02, 0.53, 0.10, 42.28
259553, 544223566, 549186683, -0.15, -0.03, 1.20, -0.19, 0.54, 0.01, 42.28
259554, 544225580, 549188697, -0.35, -0.86, 0.17, -0.28, 0.17, -0.08, 42.30
259555, 544227564, 549190681, -0.03, -0.81, 1.96, 0.17, -0.62, -0.08, 42.27
259556, 544229578, 549192695, 0.44, -0.45, -0.95, 0.27, -0.55, -0.04, 42.31
259557, 544231562, 549194679, 0.26, 0.64, 1.93, 0.37, -0.17, 0.07, 42.31
259558, 544233577, 549196694, 0.43, 1.15, -0.84, 0.11, 0.43, 0.13, 42.27
259559, 544235560, 549198677, -0.17, 0.81, 3.72, 0.01, 0.51, 0.09, 42.26
259560, 544237575, 549200692, -0.28, -0.18, 0.96, -0.23, 0.51, -0.03, 42.27
259561, 544239559, 549202676, -0.36, -1.00, 0.46, -0.31, 0.10, -0.14, 42.31
259562, 544241573, 549204690, -0.07, -0.93, 1.49, 0.18, -0.67, -0.13, 42.32
259563, 544243587, 549206704, 0.44, -0.30, -0.08, 0.33, -0.61, -0.04, 42.33
259564, 544245571, 549208688, 0.24, 0.80, 1.14, 0.42, -0.17, 0.10, 42.29
259565, 544247586, 549210703, 0.48, 1.25, -0.16, 0.11, 0.50, 0.15, 42.28
259566, 544249570, 549212687, -0.22, 0.73, 3.54, -0.02, 0.58, 0.11, 42.28
259567, 544251584, 549214701, -0.15, -0.28, 0.71, -0.36, 0.50, -0.03, 42.27
259568, 544253568, 549216685, -0.36, -1.26, 0.93, -0.31, -0.04, -0.13, 42.25
259569, 544255582, 549218699, 0.11, -0.86, 1.01, 0.28, -0.77, -0.12, 42.28
259570, 544257566, 549220683, 0.40, -0.13, 0.11, 0.45, -0.63, -0.03, 42.26
259571, 544259580, 549222697, 0.24, 0.90, 0.59, 0.40, -0.09, 0.10, 42.26
259572, 544261564, 549224681, 0.38, 1.32, 0.42, 0.02, 0.63, 0.11, 42.29
259573, 544263579, 549226696, -0.46, 0.49, 3.26, -0.10, 0.64, 0.05, 42.27
259574, 544265562, 549228679, -0.16, -0.42, 0.96, -0.36, 0.38, -0.08, 42.27
259575, 544267577, 549230694, -0.41, -1.21, 1.03, -0.21, -0.30, -0.15, 42.27
259576, 544269561, 549232678, 0.28, -0.89, 0.18, 0.34, -0.86, -0.11, 42.24
259577, 544271575, 549234692, 0.34, 0.08, 0.49, 0.46, -0.60, 0.02, 42.29
259578, 544273559, 549236676, 0.41, 1.11, 0.59, 0.33, 0.01, 0.15, 42.30
259579, 544275573, 549238690, 0.39, 1.43, 1.77, -0.03, 0.69, 0.15, 42.30
259580, 544277588, 549240705, -0.58, 0.14, 2.16, -0.17, 0.66, 0.06, 42.28
259581, 544279572, 549242689, -0.17, -0.66, 0.78, -0.33, 0.29, -0.09, 42.29
259582, 544281586, 549244703, -0.64, -1.29, 1.17, -0.11, -0.47, -0.17, 42.32
259583, 544283570, 549246687, 0.40, -0.78, -0.14, 0.36, -0.83, -0.14, 42.30
259584, 544285584, 549248701, 0.66, 1.32, 0.62, 0.30, -0.03, 0.12, 42.25
259585, 544287568, 549250685, 0.32, 1.37, 2.59, 0.02, 0.56, 0.14, 42.30
259586, 544289582, 549252699, -0.55, 0.02, 1.82, -0.23, 0.70, 0.07, 42.29
